timestamp,timestamp_sample,ref_timestamp,ref_lat,ref_lon,x,y,z,delta_xy[0],delta_xy[1],delta_z,vx,vy,vz,z_deriv,delta_vxy[0],delta_vxy[1],delta_vz,ax,ay,az,heading,delta_heading,ref_alt,dist_bottom,eph,epv,evh,evv,vxy_max,vz_max,hagl_min,hagl_max,xy_valid,z_valid,v_xy_valid,v_z_valid,xy_reset_counter,z_reset_counter,vxy_reset_counter,vz_reset_counter,heading_reset_counter,xy_global,z_global,dist_bottom_valid,dist_bottom_sensor_bitfield
668071037,668069740,31044075,49.078753500000005,2.2543773,-0.22443934,-0.90167314,0.5114386,-0.0069100135,-0.00015225113,0.25713933,-0.0003266737,-0.011852784,-0.021911515,0.010948477,-0.036898524,0.010050106,0.041895274,-0.0038563653,0.01057099,0.009844992,-0.6042659,0.032470595,99.7061,0.10323477,0.384763,0.39199933,0.14647603,0.104675345,inf,inf,inf,inf,1,1,1,1,3,1,3,2,6,1,1,1,0
668082139,668079961,31044075,49.078753500000005,2.2543773,-0.22437514,-0.9014288,0.5115754,-0.0069100135,-0.00015225113,0.25713933,-0.00040631514,-0.011901543,-0.021904616,0.010968311,-0.036898524,0.010050106,0.041895274,-0.018720604,-0.018075611,0.0029188949,-0.60426843,0.032470595,99.7061,0.10412884,0.36940166,0.3884394,0.13778815,0.102123864,inf,inf,inf,inf,1,1,1,1,3,1,3,2,6,1,1,1,0
668091186,668089901,31044075,49.078753500000005,2.2543773,-0.22431496,-0.90119565,0.5117062,-0.0069100135,-0.00015225113,0.25713933,-0.0006187048,-0.0118770115,-0.021777386,0.0110946465,-0.036898524,0.010050106,0.041895274,-0.036797572,-0.0013667685,-0.009188236,-0.6042746,0.032470595,99.7061,0.10379338,0.370171,0.38908914,0.13822865,0.10230687,inf,inf,inf,inf,1,1,1,1,3,1,3,2,6,1,1,1,0
668101562,668099865,31044075,49.078753500000005,2.2543773,-0.22425887,-0.9009784,0.51194024,-0.0069100135,-0.00015225113,0.25713933,-0.00051426125,-0.012251266,-0.021588951,0.011386784,-0.036898524,0.010050106,0.041895274,0.031689074,-0.035055403,0.035826508,-0.60428166,0.032470595,99.7061,0.106248975,0.37094492,0.38734686,0.13867031,0.10223473,inf,inf,inf,inf,1,1,1,1,3,1,3,2,6,1,1,1,0
668111129,668109819,31044075,49.078753500000005,2.2543773,-0.22420521,-0.9007718,0.5121594,-0.0069100135,-0.00015225113,0.25713933,-0.0004666854,-0.012099646,-0.021509241,0.011552343,-0.036898524,0.010050106,0.041895274,0.051703908,-0.12250538,0.021702189,-0.604241,0.032470595,99.7061,0.105828345,0.3717234,0.38799682,0.13911307,0.10241797,inf,inf,inf,inf,1,1,1,1,3,1,3,2,6,1,1,1,0
668121090,668119779,31044075,49.078753500000005,2.2543773,-0.22415435,-0.90057576,0.5123607,-0.0069100135,-0.00015225113,0.25713933,-0.0009565332,-0.011540379,-0.021697076,0.01143311,-0.036898524,0.010050106,0.041895274,-0.07930133,-0.034972563,0.034933947,-0.604143,0.032470595,99.7061,0.1054219,0.37250647,0.3886489,0.13955553,0.10260129,inf,inf,inf,inf,1,1,1,1,3,1,3,2,6,1,1,1,0
668131105,668129772,31044075,49.078753500000005,2.2543773,-0.22410841,-0.9003897,0.5125485,-0.0069100135,-0.00015225113,0.25713933,-0.0010184257,-0.011417439,-0.021510247,0.011672167,-0.036898524,0.010050106,0.041895274,-0.045303136,-0.049853057,-0.036208235,-0.6039586,0.032470595,99.7061,0.10503268,0.37329412,0.38930312,0.1399989,0.102784656,inf,inf,inf,inf,1,1,1,1,3,1,3,2,6,1,1,1,0
668140906,668139777,31044075,49.078753500000005,2.2543773,-0.22406559,-0.9002136,0.5127204,-0.0069100135,-0.00015225113,0.25713933,-0.0009701038,-0.011231157,-0.021351662,0.011867299,-0.036898524,0.010050106,0.041895274,-0.0029511945,-0.065550804,0.061225068,-0.6037781,0.032470595,99.7061,0.10465932,0.37408647,0.38995942,0.14044324,0.102968134,inf,inf,inf,inf,1,1,1,1,3,1,3,2,6,1,1,1,0
668151647,668149782,31044075,49.078753500000005,2.2543773,-0.22402884,-0.9000503,0.51289153,-0.0069100135,-0.00015225113,0.25713933,-0.0015866244,-0.01151999,-0.020989817,0.01226203,-0.036898524,0.010050106,0.041895274,-0.03224146,-0.08827027,0.089103736,-0.6036707,0.032470595,99.7061,0.1045652,0.37488338,0.38820764,0.14088856,0.10289178,inf,inf,inf,inf,1,1,1,1,3,1,3,2,6,1,1,1,0
668160927,668159788,31044075,49.078753500000005,2.2543773,-0.2239997,-0.8999051,0.5130496,-0.0069100135,-0.00015225113,0.25713933,-0.0019856666,-0.0131767625,-0.021475596,0.011794267,-0.036898524,0.010050106,0.041895274,0.006513429,-0.3399784,-0.07301909,-0.60398465,0.032470595,99.7061,0.104204714,0.37568504,0.38886413,0.14133435,0.103075445,inf,inf,inf,inf,1,1,1,1,3,1,3,2,6,1,1,1,0
668171433,668169794,31044075,49.078753500000005,2.2543773,-0.22397901,-0.8997814,0.51318914,-0.0069100135,-0.00015225113,0.25713933,-0.0025515424,-0.0129831275,-0.021472182,0.011801218,-0.036898524,0.010050106,0.041895274,0.05062409,-0.020733785,0.059912,-0.604493,0.032470595,99.7061,0.10385662,0.3764913,0.38952276,0.14178073,0.103259176,inf,inf,inf,inf,1,1,1,1,3,1,3,2,6,1,1,1,0
668181041,668179800,31044075,49.078753500000005,2.2543773,-0.22396033,-0.89967126,0.5133189,-0.0069100135,-0.00015225113,0.25713933,-0.0025128098,-0.012994599,-0.021464989,0.011798347,-0.036898524,0.010050106,0.041895274,0.008289717,0.11957124,-0.07932138,-0.6049438,0.032470595,99.7061,0.10352403,0.37730232,0.39018357,0.14222808,0.10344299,inf,inf,inf,inf,1,1,1,1,3,1,3,2,6,1,1,1,0
668191216,668189812,31044075,49.078753500000005,2.2543773,-0.2239407,-0.89957017,0.51343507,-0.0069100135,-0.00015225113,0.25713933,-0.0024680055,-0.0132186655,-0.021455614,0.011784234,-0.036898524,0.010050106,0.041895274,-0.087027825,0.008958306,-0.050956964,-0.6051798,0.032470595,99.7061,0.10319722,0.37811804,0.39084646,0.14268395,0.10362689,inf,inf,inf,inf,1,1,1,1,3,1,3,2,6,1,1,1,0
668201449,668199813,31044075,49.078753500000005,2.2543773,-0.2239183,-0.89947295,0.5135618,-0.0069100135,-0.00015225113,0.25713933,-0.0014476859,-0.012571745,-0.021010276,0.0122164,-0.036898524,0.010050106,0.041895274,0.04043174,-0.051379714,0.06312791,-0.60513556,0.032470595,99.7061,0.10342431,0.3789385,0.38908485,0.14312997,0.10354621,inf,inf,inf,inf,1,1,1,1,3,1,3,2,6,1,1,1,0
668211359,668209818,31044075,49.078753500000005,2.2543773,-0.2238937,-0.89938086,0.51367617,-0.0069100135,-0.00015225113,0.25713933,-0.0015411727,-0.012502615,-0.021286959,0.011913563,-0.036898524,0.010050106,0.041895274,-0.047494534,-0.14506015,-0.004779826,-0.6049117,0.032470595,99.7061,0.10310471,0.3797637,0.38974795,0.1435774,0.1037303,inf,inf,inf,inf,1,1,1,1,3,1,3,2,6,1,1,1,0
668221206,668219826,31044075,49.078753500000005,2.2543773,-0.22387171,-0.899295,0.51377755,-0.0069100135,-0.00015225113,0.25713933,-0.0017710257,-0.011790012,-0.02099192,0.012170244,-0.036898524,0.010050106,0.041895274,-0.08992243,-0.048743475,0.07798211,-0.6045985,0.032470595,99.7061,0.10280293,0.3805937,0.3904132,0.14402555,0.10391444,inf,inf,inf,inf,1,1,1,1,3,1,3,2,6,1,1,1,0
668231385,668229830,31044075,49.078753500000005,2.2543773,-0.22385499,-0.89921975,0.5138701,-0.0069100135,-0.00015225113,0.25713933,-0.0021499298,-0.01255645,-0.020851297,0.012260558,-0.036898524,0.010050106,0.041895274,-0.08913518,-0.1434353,0.017732192,-0.604363,0.032470595,99.7061,0.10250169,0.38142842,0.3910806,0.14447564,0.1040987,inf,inf,inf,inf,1,1,1,1,3,1,3,2,6,1,1,1,0
668241175,668239836,31044075,49.078753500000005,2.2543773,-0.22384532,-0.89916056,0.5139535,-0.0069100135,-0.00015225113,0.25713933,-0.0024302143,-0.012938466,-0.020398565,0.012651816,-0.036898524,0.010050106,0.041895274,0.0018645173,-0.038821016,0.06893179,-0.60431665,0.032470595,99.7061,0.10221481,0.38226798,0.39175016,0.14492622,0.104283,inf,inf,inf,inf,1,1,1,1,3,1,3,2,6,1,1,1,0
668253188,668249842,31044075,49.078753500000005,2.2543773,-0.22356799,-0.8988435,0.51400805,-0.0069100135,-0.00015225113,0.25713933,-0.0031595582,-0.013034794,-0.020699585,0.0122595085,-0.036898524,0.010050106,0.041895274,-0.08173417,-0.01594452,-0.010465678,-0.6044433,0.032470595,99.7061,0.1014958,0.36740455,0.38826105,0.13656369,0.1017783,inf,inf,inf,inf,1,1,1,1,3,1,3,2,6,1,1,1,0
668261519,668259853,31044075,49.078753500000005,2.2543773,-0.22330385,-0.8985446,0.51400983,-0.0069100135,-0.00015225113,0.25713933,-0.0030756814,-0.01339552,-0.020896578,0.01192183,-0.036898524,0.010050106,0.041895274,0.012689153,-0.07891004,0.020565363,-0.6046335,0.032470595,99.7061,0.10030681,0.3681608,0.38652867,0.13700122,0.101709865,inf,inf,inf,inf,1,1,1,1,3,1,3,2,6,1,1,1,0
668271518,668269854,31044075,49.078753500000005,2.2543773,-0.22304732,-0.89826214,0.51400304,-0.0069100135,-0.00015225113,0.25713933,-0.0030318089,-0.01301673,-0.02102322,0.01164727,-0.036898524,0.010050106,0.041895274,-0.032960955,0.0075180507,-0.030883662,-0.60479724,0.032470595,99.7061,0.100105226,0.3689216,0.3871733,0.13744251,0.1018929,inf,inf,inf,inf,1,1,1,1,3,1,3,2,6,1,1,1,0
668281200,668279860,31044075,49.078753500000005,2.2543773,-0.2228001,-0.8979922,0.51398724,-0.0069100135,-0.00015225113,0.25713933,-0.0033993341,-0.012450935,-0.021344367,0.011171458,-0.036898524,0.010050106,0.041895274,-0.122607596,0.08866173,-0.10787711,-0.6048995,0.032470595,99.7061,0.1,0.3696869,0.38782004,0.1378828,0.10207594,inf,inf,inf,inf,1,1,1,1,3,1,3,2,6,1,1,1,0
668291081,668289868,31044075,49.078753500000005,2.2543773,-0.22256215,-0.8977336,0.5139608,-0.0069100135,-0.00015225113,0.25713933,-0.0028763982,-0.012449439,-0.020615812,0.011738959,-0.036898524,0.010050106,0.041895274,0.020009628,0.008465317,0.1810876,-0.60493463,0.032470595,99.7061,0.1,0.37045678,0.38846886,0.13832378,0.10225899,inf,inf,inf,inf,1,1,1,1,3,1,3,2,6,1,1,1,0
668301555,668299872,31044075,49.078753500000005,2.2543773,-0.22232895,-0.8974903,0.5139388,-0.0069100135,-0.00015225113,0.25713933,-0.0022220605,-0.01245256,-0.019850224,0.012337276,-0.036898524,0.010050106,0.041895274,0.11722268,0.037106875,-0.0058116424,-0.60488003,0.032470595,99.7061,0.1,0.37123123,0.38911986,0.13876568,0.10244213,inf,inf,inf,inf,1,1,1,1,3,1,3,2,6,1,1,1,0
668311287,668309879,31044075,49.078753500000005,2.2543773,-0.22210138,-0.8972576,0.5139149,-0.0069100135,-0.00015225113,0.25713933,-0.0023000306,-0.011655684,-0.021550125,0.010477872,-0.036898524,0.010050106,0.041895274,0.05779676,0.13482822,-0.12793392,-0.6047504,0.032470595,99.7061,0.1,0.3720102,0.38737822,0.13920633,0.10236927,inf,inf,inf,inf,1,1,1,1,3,1,3,2,6,1,1,1,0
668321561,668319884,31044075,49.078753500000005,2.2543773,-0.22188437,-0.89703286,0.51387334,-0.0069100135,-0.00015225113,0.25713933,-0.0029649888,-0.01155257,-0.022165814,0.009696627,-0.036898524,0.010050106,0.041895274,-0.04268067,0.014179763,-0.08310251,-0.60466933,0.032470595,99.7061,0.1,0.37279382,0.3880294,0.13965048,0.10255262,inf,inf,inf,inf,1,1,1,1,3,1,3,2,6,1,1,1,0
668331120,668329890,31044075,49.078753500000005,2.2543773,-0.22168043,-0.89683276,0.51382077,-0.0069100135,-0.00015225113,0.25713933,-0.0033665628,-0.014019055,-0.021606978,0.010084251,-0.036898524,0.010050106,0.041895274,-0.012078907,-0.2519957,0.16592711,-0.6046846,0.032470595,99.7061,0.1,0.37358204,0.3886827,0.1400934,0.10273602,inf,inf,inf,inf,1,1,1,1,3,1,3,2,6,1,1,1,0
668342521,668340101,31044075,49.078753500000005,2.2543773,-0.22148497,-0.89666563,0.513772,-0.0069100135,-0.00015225113,0.25713933,-0.0032257047,-0.014137423,-0.019824205,0.011690274,-0.036898524,0.010050106,0.041895274,0.003342441,0.14507633,0.14070651,-0.60470533,0.032470595,99.7061,0.1,0.37437487,0.38933814,0.14053743,0.10291959,inf,inf,inf,inf,1,1,1,1,3,1,3,2,6,1,1,1,0
668352203,668350057,31044075,49.078753500000005,2.2543773,-0.22129959,-0.8964912,0.51372,-0.0069100135,-0.00015225113,0.25713933,-0.0039844243,-0.012035676,-0.021866752,0.00946595,-0.036898524,0.010050106,0.041895274,-0.05196265,0.13998704,-0.2250378,-0.60477203,0.032470595,99.7061,0.1,0.37517238,0.38999566,0.14098111,0.10310321,inf,inf,inf,inf,1,1,1,1,3,1,3,2,6,1,1,1,0
668362800,668360012,31044075,49.078753500000005,2.2543773,-0.22112799,-0.89633036,0.5135863,-0.0069100135,-0.00015225113,0.25713933,-0.004438487,-0.014717942,-0.021426352,0.009659505,-0.036898524,0.010050106,0.041895274,0.014648495,-0.38577443,0.32983547,-0.6048849,0.032470595,99.7061,0.1,0.37597454,0.38824445,0.14142823,0.1030264,inf,inf,inf,inf,1,1,1,1,3,1,3,2,6,1,1,1,0
668372076,668369969,31044075,49.078753500000005,2.2543773,-0.22096089,-0.89620703,0.51346785,-0.0069100135,-0.00015225113,0.25713933,-0.004286726,-0.01600094,-0.019453183,0.011384033,-0.036898524,0.010050106,0.041895274,-0.07094912,0.016740933,0.17392324,-0.6049804,0.032470595,99.7061,0.1,0.37678137,0.3889022,0.14187585,0.10321019,inf,inf,inf,inf,1,1,1,1,3,1,3,2,6,1,1,1,0
668382169,668379936,31044075,49.078753500000005,2.2543773,-0.2208083,-0.8960886,0.5133324,-0.0069100135,-0.00015225113,0.25713933,-0.0052634655,-0.013622274,-0.024560858,0.0060261,-0.036898524,0.010050106,0.041895274,-0.028440965,0.34926975,-0.661485,-0.6050875,0.032470595,99.7061,0.1,0.3775929,0.38956207,0.14232357,0.10339402,inf,inf,inf,inf,1,1,1,1,3,1,3,2,6,1,1,1,0
668392205,668389926,31044075,49.078753500000005,2.2543773,-0.2206621,-0.89597213,0.5131706,-0.0069100135,-0.00015225113,0.25713933,-0.005226978,-0.015618729,-0.021803323,0.008531932,-0.036898524,0.010050106,0.041895274,-0.120000936,-0.373784,0.52488893,-0.605157,0.032470595,99.7061,0.1,0.37840918,0.39022407,0.14277291,0.10357797,inf,inf,inf,inf,1,1,1,1,3,1,3,2,6,1,1,1,0
668402169,668399937,31044075,49.078753500000005,2.2543773,-0.22051498,-0.89587533,0.51304144,-0.0069100135,-0.00015225113,0.25713933,-0.005634355,-0.017026953,-0.020561805,0.009520306,-0.036898524,0.010050106,0.041895274,-0.5296563,-0.6352953,-0.3105042,-0.60509914,0.032470595,99.7061,0.1,0.37923017,0.39088827,0.14321916,0.103761904,inf,inf,inf,inf,1,1,1,1,3,1,3,2,6,1,1,1,0
668412201,668409938,31044075,49.078753500000005,2.2543773,-0.22038676,-0.89578366,0.5128625,-0.0069100135,-0.00015225113,0.25713933,-0.0047021452,-0.012953482,-0.025695663,0.004132195,-0.036898524,0.010050106,0.041895274,0.22739185,0.25771654,0.11339669,-0.60516715,0.032470595,99.7061,0.1,0.38005593,0.3915546,0.14366582,0.10394589,inf,inf,inf,inf,1,1,1,1,3,1,3,2,6,1,1,1,0
668422877,668419944,31044075,49.078753500000005,2.2543773,-0.22026296,-0.8957027,0.5127441,-0.0069100135,-0.00015225113,0.25713933,-0.004088151,-0.014293666,-0.018410522,0.011198674,-0.036898524,0.010050106,0.041895274,0.44524765,0.3002813,0.65515053,-0.60506386,0.032470595,99.7061,0.1,0.38088644,0.38978317,0.14412248,0.10386247,inf,inf,inf,inf,1,1,1,1,3,1,3,2,6,1,1,1,0
668432361,668429950,31044075,49.078753500000005,2.2543773,-0.2201523,-0.89563316,0.5126425,-0.0069100135,-0.00015225113,0.25713933,-0.007840533,-0.014064104,-0.025316915,0.0040711896,-0.036898524,0.010050106,0.041895274,-0.32101226,0.31775832,-1.548843,-0.6051195,0.032470595,99.7061,0.1,0.38172176,0.39044964,0.1445758,0.104046814,inf,inf,inf,inf,1,1,1,1,3,1,3,2,6,1,1,1,0
668442496,668439958,31044075,49.078753500000005,2.2543773,-0.22004245,-0.8955723,0.51249117,-0.0069100135,-0.00015225113,0.25713933,-0.0068990886,-0.014211988,-0.023405144,0.0057595684,-0.036898524,0.010050106,0.041895274,-0.6052365,0.27646104,0.13252783,-0.6051902,0.032470595,99.7061,0.1,0.3825619,0.39111826,0.14502545,0.10423134,inf,inf,inf,inf,1,1,1,1,3,1,3,2,6,1,1,1,0
668453871,668449962,31044075,49.078753500000005,2.2543773,-0.22006771,-0.8951765,0.5123713,-0.0069100135,-0.00015225113,0.25713933,-0.0075428416,-0.011920516,-0.023547538,0.0054031606,-0.036898524,0.010050106,0.041895274,0.14458013,1.0771393,-0.7015424,-0.6052499,0.032470595,99.7061,0.1,0.3676555,0.3876199,0.13660325,0.10171333,inf,inf,inf,inf,1,1,1,1,3,1,3,2,6,1,1,1,0
668462151,668459968,31044075,49.078753500000005,2.2543773,-0.22011177,-0.89479756,0.5122201,-0.0069100135,-0.00015225113,0.25713933,-0.0032657667,-0.015964665,-0.023060821,0.0056735612,-0.036898524,0.010050106,0.041895274,2.0386004,-0.0142103415,0.48842013,-0.6054294,0.032470595,99.7061,0.1,0.3684118,0.38826534,0.13704754,0.10189607,inf,inf,inf,inf,1,1,1,1,3,1,3,2,6,1,1,1,0
668472920,668469974,31044075,49.078753500000005,2.2543773,-0.22015193,-0.89445704,0.5120338,-0.0069100135,-0.00015225113,0.25713933,-0.0069450852,-0.015252218,-0.019993441,0.008463936,-0.036898524,0.010050106,0.041895274,1.1302153,0.5603758,0.37761083,-0.60560894,0.032470595,99.7061,0.1,0.36917263,0.38653392,0.1374836,0.101827316,inf,inf,inf,inf,1,1,1,1,3,1,3,2,6,1,1,1,0
668482028,668479980,31044075,49.078753500000005,2.2543773,-0.22021663,-0.89413244,0.5118176,-0.0069100135,-0.00015225113,0.25713933,-0.007719496,-0.018252425,-0.025533278,0.002647753,-0.036898524,0.010050106,0.041895274,1.432355,-0.35450995,0.1236552,-0.6059381,0.032470595,99.7061,0.1,0.369938,0.38717958,0.13791497,0.10201035,inf,inf,inf,inf,1,1,1,1,3,1,3,2,6,1,1,1,0
668492852,668489986,31044075,49.078753500000005,2.2543773,-0.22027743,-0.8938352,0.5116015,-0.0069100135,-0.00015225113,0.25713933,-0.011918942,-0.017114066,-0.021966735,0.0059385733,-0.036898524,0.010050106,0.041895274,-0.13352455,0.07759908,0.5314773,-0.6061099,0.032470595,99.7061,0.1,0.37070787,0.3878274,0.13837281,0.10219338,inf,inf,inf,inf,1,1,1,1,3,1,3,2,6,1,1,1,0
668502086,668499992,31044075,49.078753500000005,2.2543773,-0.22036979,-0.8935574,0.5113722,-0.0069100135,-0.00015225113,0.25713933,-0.011122507,-0.019396232,-0.026328292,0.0013020679,-0.036898524,0.010050106,0.041895274,0.86755097,-0.40130988,0.027507264,-0.60642314,0.032470595,99.7061,0.1,0.37148234,0.3884773,0.13880393,0.10237662,inf,inf,inf,inf,1,1,1,1,3,1,3,2,6,1,1,1,0
668512530,668509998,31044075,49.078753500000005,2.2543773,-0.22044891,-0.8933086,0.5111352,-0.0069100135,-0.00015225113,0.25713933,-0.014833457,-0.020013982,-0.024625868,0.0027302986,-0.036898524,0.010050106,0.041895274,-0.78753483,-0.33611864,0.3017528,-0.60659623,0.032470595,99.7061,0.1,0.37226138,0.3891293,0.13924193,0.10255995,inf,inf,inf,inf,1,1,1,1,3,1,3,2,6,1,1,1,0
668522426,668520004,31044075,49.078753500000005,2.2543773,-0.22055693,-0.8930792,0.5108443,-0.0069100135,-0.00015225113,0.25713933,-0.010923596,-0.022133552,-0.022734817,0.0042907316,-0.036898524,0.010050106,0.041895274,1.1023281,-0.8910823,0.8765361,-0.606807,0.032470595,99.7061,0.1,0.37304497,0.38738856,0.13970338,0.102486394,inf,inf,inf,inf,1,1,1,1,3,1,3,2,6,1,1,1,0
668532357,668530010,31044075,49.078753500000005,2.2543773,-0.22065976,-0.8928891,0.51056224,-0.0069100135,-0.00015225113,0.25713933,-0.014300393,-0.020759273,-0.023674894,0.0030233455,-0.036898524,0.010050106,0.041895274,0.21433273,0.28037983,0.4142911,-0.60695016,0.032470595,99.7061,0.1,0.37383324,0.38804078,0.14012074,0.102669775,inf,inf,inf,inf,1,1,1,1,3,1,3,2,6,1,1,1,0
668542343,668540016,31044075,49.078753500000005,2.2543773,-0.220769,-0.8927007,0.5102782,-0.0069100135,-0.00015225113,0.25713933,-0.011058043,-0.020725066,-0.02173285,0.0046415655,-0.036898524,0.010050106,0.041895274,1.0368735,-0.07991751,0.9468803,-0.6071057,0.032470595,99.7061,0.1,0.3746261,0.38869515,0.14059046,0.10285371,inf,inf,inf,inf,1,1,1,1,3,1,3,2,6,1,1,1,0
668552352,668550022,31044075,49.078753500000005,2.2543773,-0.22088902,-0.8925654,0.5100057,-0.0069100135,-0.00015225113,0.25713933,-0.015506396,-0.022707134,-0.026819801,-0.0007659232,-0.036898524,0.010050106,0.041895274,0.3569563,0.8900829,-0.85675067,-0.60735035,0.032470595,99.7061,0.1,0.37542364,0.3893516,0.14102879,0.10303711,inf,inf,inf,inf,1,1,1,1,3,1,3,2,6,1,1,1,0
668562301,668560030,31044075,49.078753500000005,2.2543773,-0.220992,-0.8924217,0.50972056,-0.0069100135,-0.00015225113,0.25713933,-0.011453519,-0.022374423,-0.02429966,0.0014371304,-0.036898524,0.010050106,0.041895274,0.38617998,-0.062318582,-0.13470536,-0.60743725,0.032470595,99.7061,0.1,0.37622586,0.39001024,0.14147529,0.10322065,inf,inf,inf,inf,1,1,1,1,3,1,3,2,6,1,1,1,0
668572474,668570034,31044075,49.078753500000005,2.2543773,-0.22111611,-0.89230734,0.509447,-0.0069100135,-0.00015225113,0.25713933,-0.015541188,-0.022099074,-0.0269721,-0.0015490875,-0.036898524,0.010050106,0.041895274,0.40887907,0.70356745,-1.1282344,-0.6078235,0.032470595,99.7061,0.1,0.37703273,0.39067098,0.14192009,0.10340398,inf,inf,inf,inf,1,1,1,1,3,1,3,2,6,1,1,1,0
668582624,668580040,31044075,49.078753500000005,2.2543773,-0.22122857,-0.89221585,0.5091113,-0.0069100135,-0.00015225113,0.25713933,-0.016704306,-0.02844505,-0.02509893,-4.266179e-05,-0.036898524,0.010050106,0.041895274,-0.8232763,-0.75619096,-0.575202,-0.6078932,0.032470595,99.7061,0.1,0.3778443,0.38891047,0.14235629,0.10332485,inf,inf,inf,inf,1,1,1,1,3,1,3,2,6,1,1,1,0
668592652,668590046,31044075,49.078753500000005,2.2543773,-0.22136468,-0.89214504,0.5087773,-0.0069100135,-0.00015225113,0.25713933,-0.011959639,-0.020911897,-0.02061165,0.004083582,-0.036898524,0.010050106,0.041895274,1.4180984,1.1847374,0.98564774,-0.60810053,0.032470595,99.7061,0.1,0.37866062,0.38957137,0.14282483,0.10350894,inf,inf,inf,inf,1,1,1,1,3,1,3,2,6,1,1,1,0
668602312,668600265,31044075,49.078753500000005,2.2543773,-0.22148189,-0.89208585,0.508469,-0.0069100135,-0.00015225113,0.25713933,-0.016162166,-0.025835067,-0.021852635,0.0024873258,-0.036898524,0.010050106,0.041895274,-0.29716533,0.20346604,-0.06503982,-0.60817397,0.032470595,99.7061,0.1,0.37948167,0.39023444,0.14326063,0.1036933,inf,inf,inf,inf,1,1,1,1,3,1,3,2,6,1,1,1,0
668612223,668610213,31044075,49.078753500000005,2.2543773,-0.22162534,-0.89202565,0.5081471,-0.0069100135,-0.00015225113,0.25713933,-0.015096545,-0.02348975,-0.02281664,0.0011737064,-0.036898524,0.010050106,0.041895274,0.7779972,0.18466957,0.3868413,-0.6084297,0.032470595,99.7061,0.1,0.38030744,0.3908997,0.14372633,0.10387726,inf,inf,inf,inf,1,1,1,1,3,1,3,2,6,1,1,1,0
668622388,668620169,31044075,49.078753500000005,2.2543773,-0.22177568,-0.89200735,0.5078331,-0.0069100135,-0.00015225113,0.25713933,-0.025234343,-0.03248838,-0.02834799,-0.0047018095,-0.036898524,0.010050106,0.041895274,-1.9823836,-1.0888197,-1.630718,-0.6088443,0.032470595,99.7061,0.1,0.38113803,0.39156705,0.14417043,0.10406177,inf,inf,inf,inf,1,1,1,1,3,1,3,2,6,1,1,1,0
668632347,668630133,31044075,49.078753500000005,2.2543773,-0.22190636,-0.89197934,0.50750476,-0.0069100135,-0.00015225113,0.25713933,-0.01804245,-0.032123778,-0.021985747,0.0013091078,-0.036898524,0.010050106,0.041895274,-1.6641521,-2.7537754,-0.103694856,-0.6089337,0.032470595,99.7061,0.1,0.38197345,0.38979644,0.14461423,0.103977315,inf,inf,inf,inf,1,1,1,1,3,1,3,2,6,1,1,1,0
668642618,668640100,31044075,49.078753500000005,2.2543773,-0.22204877,-0.89200073,0.5071599,-0.0069100135,-0.00015225113,0.25713933,-0.01816321,-0.026465781,-0.025830092,-0.002880728,-0.036898524,0.010050106,0.041895274,-0.5509534,0.5416387,0.13412778,-0.60918355,0.032470595,99.7061,0.1,0.3828136,0.39046395,0.14506955,0.10416181,inf,inf,inf,inf,1,1,1,1,3,1,3,2,6,1,1,1,0
668653527,668651334,31044075,49.078753500000005,2.2543773,-0.22222498,-0.8918478,0.50679356,-0.0069100135,-0.00015225113,0.25713933,-0.013540126,-0.028912503,-0.027581224,-0.004930291,-0.036898524,0.010050106,0.041895274,0.14483188,-0.50932395,0.27009776,-0.608953,0.032470595,99.7061,0.1,0.36791396,0.386985,0.13663578,0.10164844,inf,inf,inf,inf,1,1,1,1,3,1,3,2,6,1,1,1,0
668663107,668661342,31044075,49.078753500000005,2.2543773,-0.22240643,-0.8916561,0.5064737,-0.0069100135,-0.00015225113,0.25713933,-0.012629751,-0.020511838,-0.02348834,-0.0011320902,-0.036898524,0.010050106,0.041895274,1.8239272,0.8146589,0.92787975,-0.60916066,0.032470595,99.7061,0.1,0.36867028,0.38762942,0.13709266,0.101831675,inf,inf,inf,inf,1,1,1,1,3,1,3,2,6,1,1,1,0
668672567,668671347,31044075,49.078753500000005,2.2543773,-0.22258347,-0.89149594,0.50619316,-0.0069100135,-0.00015225113,0.25713933,-0.019156864,-0.026072143,-0.020995943,0.0010694405,-0.036898524,0.010050106,0.041895274,-0.23377451,0.60852057,0.52178305,-0.6095015,0.032470595,99.7061,0.1,0.36943117,0.38827592,0.13752306,0.10201372,inf,inf,inf,inf,1,1,1,1,3,1,3,2,6,1,1,1,0
668682979,668681351,31044075,49.078753500000005,2.2543773,-0.22272304,-0.8913203,0.50608754,-0.0069100135,-0.00015225113,0.25713933,-0.014067442,-0.029727016,-0.01991904,0.0019925574,-0.036898524,0.010050106,0.041895274,-0.8441677,-2.2637274,-0.6523637,-0.6096323,0.032470595,99.7061,0.1,0.37019652,0.38654533,0.13797283,0.10194451,inf,inf,inf,inf,1,1,1,1,3,1,3,2,6,1,1,1,0
668692747,668691359,31044075,49.078753500000005,2.2543773,-0.22286059,-0.8912024,0.5059463,-0.0069100135,-0.00015225113,0.25713933,-0.010585943,-0.019578518,-0.021148674,0.0006069652,-0.036898524,0.010050106,0.041895274,0.58278686,2.116033,0.31790733,-0.60978436,0.032470595,99.7061,0.1,0.37096646,0.38719207,0.13840704,0.102127805,inf,inf,inf,inf,1,1,1,1,3,1,3,2,6,1,1,1,0
668702748,668701363,31044075,49.078753500000005,2.2543773,-0.22296381,-0.8910642,0.5057986,-0.0069100135,-0.00015225113,0.25713933,-0.009840351,-0.02624599,-0.024641052,-0.0030434811,-0.036898524,0.010050106,0.041895274,-0.19576617,-0.23922874,-0.7288246,-0.6097509,0.032470595,99.7061,0.1,0.37174097,0.38784093,0.13883226,0.102309525,inf,inf,inf,inf,1,1,1,1,3,1,3,2,6,1,1,1,0
668712732,668711369,31044075,49.078753500000005,2.2543773,-0.2230918,-0.89090705,0.5056277,-0.0069100135,-0.00015225113,0.25713933,-0.0059336713,-0.016641788,-0.02137416,6.323746e-05,-0.036898524,0.010050106,0.041895274,2.0281692,0.68507975,0.6848843,-0.6098028,0.032470595,99.7061,0.1,0.37252003,0.3884919,0.1392867,0.10249322,inf,inf,inf,inf,1,1,1,1,3,1,3,2,6,1,1,1,0
668722726,668721375,31044075,49.078753500000005,2.2543773,-0.22319417,-0.8907638,0.50549597,-0.0069100135,-0.00015225113,0.25713933,-0.015827643,-0.024801612,-0.019358454,0.0019169726,-0.036898524,0.010050106,0.041895274,-1.5640234,-0.795462,-0.07813521,-0.61027604,0.032470595,99.7061,0.1,0.37330368,0.389145,0.13973111,0.10267583,inf,inf,inf,inf,1,1,1,1,3,1,3,2,6,1,1,1,0
668732744,668731381,31044075,49.078753500000005,2.2543773,-0.22325511,-0.89060104,0.505387,-0.0069100135,-0.00015225113,0.25713933,-0.006272031,-0.023888253,-0.015484923,0.0056269965,-0.036898524,0.010050106,0.041895274,-1.3992672,-2.6523032,0.19344674,-0.6102391,0.032470595,99.7061,0.1,0.37409195,0.38980016,0.14019364,0.10286065,inf,inf,inf,inf,1,1,1,1,3,1,3,2,6,1,1,1,0
668743052,668741394,31044075,49.078753500000005,2.2543773,-0.22330815,-0.8904972,0.5054257,-0.0069100135,-0.00015225113,0.25713933,0.003057952,-0.013792049,-0.015166777,0.0059349323,-0.036898524,0.010050106,0.041895274,1.9222555,2.1894107,0.70798844,-0.6102413,0.032470595,99.7061,0.10143894,0.37488493,0.38805023,0.14061318,0.102783576,inf,inf,inf,inf,1,1,1,1,3,1,3,2,6,1,1,1,0
668752630,668751392,31044075,49.078753500000005,2.2543773,-0.2233321,-0.89041233,0.5054203,-0.0069100135,-0.00015225113,0.25713933,0.0010023038,-0.022810984,-0.022035837,-0.0009524246,-0.036898524,0.010050106,0.041895274,1.0476397,0.77565306,0.134321,-0.6102854,0.032470595,99.7061,0.10120988,0.37568247,0.3887056,0.14107096,0.10296631,inf,inf,inf,inf,1,1,1,1,3,1,3,2,6,1,1,1,0
668762994,668761399,31044075,49.078753500000005,2.2543773,-0.22338153,-0.89032364,0.5053709,-0.0069100135,-0.00015225113,0.25713933,0.0010600906,-0.017998476,-0.023654595,-0.0025984219,-0.036898524,0.010050106,0.041895274,1.8558221,0.7037565,0.4389072,-0.61036956,0.032470595,99.7061,0.10096288,0.37648472,0.38936314,0.14156735,0.103148974,inf,inf,inf,inf,1,1,1,1,3,1,3,2,6,1,1,1,0
668772721,668771409,31044075,49.078753500000005,2.2543773,-0.22344843,-0.8902559,0.50532407,-0.0069100135,-0.00015225113,0.25713933,-0.012559644,-0.022239216,-0.028008597,-0.0069870753,-0.036898524,0.010050106,0.041895274,-1.463209,0.2929828,-1.423312,-0.61058295,0.032470595,99.7061,0.100758016,0.3772918,0.39002278,0.14199924,0.1033315,inf,inf,inf,inf,1,1,1,1,3,1,3,2,6,1,1,1,0
668782760,668781415,31044075,49.078753500000005,2.2543773,-0.22349873,-0.890151,0.5052916,-0.0069100135,-0.00015225113,0.25713933,-0.0071242307,-0.023292165,-0.019749317,0.0012302863,-0.036898524,0.010050106,0.041895274,-1.8542252,-2.3304958,-0.25455698,-0.6104342,0.032470595,99.7061,0.10056722,0.37810355,0.39068457,0.14243783,0.1035159,inf,inf,inf,inf,1,1,1,1,3,1,3,2,6,1,1,1,0
668793026,668791417,31044075,49.078753500000005,2.2543773,-0.22357748,-0.8900774,0.50542134,-0.0069100135,-0.00015225113,0.25713933,0.0031501963,-0.008258705,-0.013454551,0.0076201307,-0.036898524,0.010050106,0.041895274,2.8415017,2.8194578,1.3203642,-0.61027056,0.032470595,99.7061,0.10376334,0.37892,0.3889248,0.14288197,0.10343488,inf,inf,inf,inf,1,1,1,1,3,1,3,2,6,1,1,1,0
668802531,668801426,31044075,49.078753500000005,2.2543773,-0.22363359,-0.8900176,0.5055603,-0.0069100135,-0.00015225113,0.25713933,-0.007009881,-0.024663994,-0.017022626,0.0041343835,-0.036898524,0.010050106,0.041895274,-0.083196126,-0.41539407,0.04909385,-0.61033964,0.032470595,99.7061,0.103428185,0.37974113,0.38958678,0.14333552,0.10361716,inf,inf,inf,inf,1,1,1,1,3,1,3,2,6,1,1,1,0
668813031,668811429,31044075,49.078753500000005,2.2543773,-0.22366649,-0.88993704,0.50570005,-0.0069100135,-0.00015225113,0.25713933,-0.002724212,-0.019746073,-0.016094305,0.005132689,-0.036898524,0.010050106,0.041895274,-0.76333785,-1.798353,-0.54097664,-0.61032057,0.032470595,99.7061,0.10306591,0.3805671,0.39025086,0.14379819,0.10380088,inf,inf,inf,inf,1,1,1,1,3,1,3,2,6,1,1,1,0
668822573,668821435,31044075,49.078753500000005,2.2543773,-0.22371769,-0.88989794,0.5058131,-0.0069100135,-0.00015225113,0.25713933,-0.0017776575,-0.009321723,-0.015045289,0.0062399674,-0.036898524,0.010050106,0.041895274,0.73867196,3.076757,0.5048393,-0.6101993,0.032470595,99.7061,0.10273141,0.38139784,0.3909171,0.14423649,0.10398326,inf,inf,inf,inf,1,1,1,1,3,1,3,2,6,1,1,1,0
668833103,668831443,31044075,49.078753500000005,2.2543773,-0.22375761,-0.8898311,0.5058869,-0.0069100135,-0.00015225113,0.25713933,-0.0030997437,-0.017978419,-0.023546709,-0.002214515,-0.036898524,0.010050106,0.041895274,-0.050882734,0.03536585,-0.8160592,-0.60999596,0.032470595,99.7061,0.1024605,0.38223335,0.3915855,0.14468046,0.10416857,inf,inf,inf,inf,1,1,1,1,3,1,3,2,6,1,1,1,0
668843612,668841448,31044075,49.078753500000005,2.2543773,-0.22375636,-0.8897556,0.505941,-0.0069100135,-0.00015225113,0.25713933,-0.001743091,-0.013331925,-0.021756722,-0.0003918524,-0.036898524,0.010050106,0.041895274,0.92707676,-1.0868164,-0.9533905,-0.61007005,0.032470595,99.7061,0.10212386,0.36744764,0.38572073,0.1363103,0.10140488,inf,inf,inf,inf,1,1,1,1,3,1,3,2,6,1,1,1,0
668852870,668851458,31044075,49.078753500000005,2.2543773,-0.22373366,-0.8896778,0.50599784,-0.0069100135,-0.00015225113,0.25713933,-0.009806335,-0.008612667,-0.014458394,0.0069289315,-0.036898524,0.010050106,0.041895274,-2.2425585,0.39182395,0.9386694,-0.61034536,0.032470595,99.7061,0.10192174,0.3682001,0.38636205,0.13674767,0.101585105,inf,inf,inf,inf,1,1,1,1,3,1,3,2,6,1,1,1,0
668862718,668861652,31044075,49.078753500000005,2.2543773,-0.22370878,-0.88956934,0.5060446,-0.0069100135,-0.00015225113,0.25713933,5.5985773e-05,-0.00926748,-0.019307652,0.002092485,-0.036898524,0.010050106,0.041895274,-0.23640855,-0.88505554,0.14968568,-0.6101661,0.032470595,99.7061,0.10169965,0.36895698,0.38700545,0.13721089,0.10176803,inf,inf,inf,inf,1,1,1,1,3,1,3,2,6,1,1,1,0
668872814,668871606,31044075,49.078753500000005,2.2543773,-0.22371633,-0.8894914,0.50609386,-0.0069100135,-0.00015225113,0.25713933,0.006402378,0.0023241914,-0.0147268595,0.0066767302,-0.036898524,0.010050106,0.041895274,4.020949,3.5110345,0.7664392,-0.61011124,0.032470595,99.7061,0.101430416,0.36971852,0.38765097,0.13765661,0.101949945,inf,inf,inf,inf,1,1,1,1,3,1,3,2,6,1,1,1,0
668882889,668881570,31044075,49.078753500000005,2.2543773,-0.22371402,-0.8894338,0.50615454,-0.0069100135,-0.00015225113,0.25713933,-0.0132040195,-0.018188411,-0.017492263,0.0039059003,-0.036898524,0.010050106,0.041895274,-1.7211854,-0.98377085,-0.4660513,-0.61033773,0.032470595,99.7061,0.10112095,0.37048456,0.3882986,0.13811326,0.102134205,inf,inf,inf,inf,1,1,1,1,3,1,3,2,6,1,1,1,0
668892816,668891526,31044075,49.078753500000005,2.2543773,-0.22371575,-0.88937485,0.50619596,-0.0069100135,-0.00015225113,0.25713933,-0.00660898,-0.0126224905,-0.020538807,0.0008453254,-0.036898524,0.010050106,0.041895274,-1.7079024,-1.8275297,-1.2706289,-0.61027753,0.032470595,99.7061,0.100846946,0.37125522,0.38894832,0.13852486,0.10231588,inf,inf,inf,inf,1,1,1,1,3,1,3,2,6,1,1,1,0
668903022,668901488,31044075,49.078753500000005,2.2543773,-0.22377545,-0.8893556,0.5063621,-0.0069100135,-0.00015225113,0.25713933,-0.008112343,-0.007476352,-0.016227208,0.005276597,-0.036898524,0.010050106,0.041895274,0.8500776,1.6279124,0.03354874,-0.61024725,0.032470595,99.7061,0.10400456,0.37203035,0.38720864,0.13894415,0.10224103,inf,inf,inf,inf,1,1,1,1,3,1,3,2,6,1,1,1,0
668913069,668911491,31044075,49.078753500000005,2.2543773,-0.22381657,-0.8893292,0.50647616,-0.0069100135,-0.00015225113,0.25713933,-0.013474444,-0.0153658865,-0.021235738,0.000373581,-0.036898524,0.010050106,0.041895274,-1.6961195,-0.7821694,0.5159551,-0.6101247,0.032470595,99.7061,0.10374826,0.37280998,0.38785857,0.13939992,0.10242584,inf,inf,inf,inf,1,1,1,1,3,1,3,2,6,1,1,1,0
668922788,668921495,31044075,49.078753500000005,2.2543773,-0.22388774,-0.889289,0.50656253,-0.0069100135,-0.00015225113,0.25713933,-0.006569998,-0.008261363,-0.026859604,-0.005158153,-0.036898524,0.010050106,0.041895274,0.92906165,-0.37119937,-1.0778168,-0.6102375,0.032470595,99.7061,0.10350984,0.37359428,0.3885106,0.13983989,0.1026076,inf,inf,inf,inf,1,1,1,1,3,1,3,2,6,1,1,1,0
668933060,668931500,31044075,49.078753500000005,2.2543773,-0.22396208,-0.8892643,0.50664556,-0.0069100135,-0.00015225113,0.25713933,-0.016812399,-0.010661795,-0.019132754,0.0026478958,-0.036898524,0.010050106,0.041895274,-1.3591647,0.04613853,0.34787276,-0.61038107,0.032470595,99.7061,0.103282034,0.37438318,0.3891648,0.14028043,0.10278953,inf,inf,inf,inf,1,1,1,1,3,1,3,2,6,1,1,1,0
668942818,668941508,31044075,49.078753500000005,2.2543773,-0.22402306,-0.889228,0.5067197,-0.0069100135,-0.00015225113,0.25713933,-0.011365308,-0.012898864,-0.017869703,0.003977818,-0.036898524,0.010050106,0.041895274,-1.3429234,-1.5655802,1.40149,-0.61026156,0.032470595,99.7061,0.1030274,0.37517676,0.3898211,0.14075631,0.10297299,inf,inf,inf,inf,1,1,1,1,3,1,3,2,6,1,1,1,0
668953066,668951513,31044075,49.078753500000005,2.2543773,-0.22414556,-0.8892464,0.5069506,-0.0069100135,-0.00015225113,0.25713933,1.270081e-05,-0.00023543068,-0.016039457,0.0060041407,-0.036898524,0.010050106,0.041895274,5.05178,3.874226,0.8840393,-0.61022544,0.032470595,99.7061,0.10604423,0.375975,0.38807186,0.14119555,0.10289569,inf,inf,inf,inf,1,1,1,1,3,1,3,2,6,1,1,1,0
668962808,668961530,31044075,49.078753500000005,2.2543773,-0.22426444,-0.8892839,0.5072001,-0.0069100135,-0.00015225113,0.25713933,-0.024298541,-0.022186778,-0.018737242,0.0034848475,-0.036898524,0.010050106,0.041895274,-1.3649855,-0.9391066,-1.0979823,-0.6105375,0.032470595,99.7061,0.105630815,0.37677792,0.38872835,0.14161572,0.103079416,inf,inf,inf,inf,1,1,1,1,3,1,3,2,6,1,1,1,0
668972677,668971525,31044075,49.078753500000005,2.2543773,-0.22435299,-0.8892955,0.50743914,-0.0069100135,-0.00015225113,0.25713933,-0.017111523,-0.017373517,-0.015747046,0.0066365083,-0.036898524,0.010050106,0.041895274,-2.9406989,-2.9837587,-0.60376155,-0.6106132,0.032470595,99.7061,0.10523677,0.37758547,0.38938695,0.14208733,0.10326125,inf,inf,inf,inf,1,1,1,1,3,1,3,2,6,1,1,1,0
668983177,668981531,31044075,49.078753500000005,2.2543773,-0.22448696,-0.88936555,0.50763726,-0.0069100135,-0.00015225113,0.25713933,-0.0038135992,-0.0031145357,-0.015565491,0.006963168,-0.036898524,0.010050106,0.041895274,3.6539915,3.9581873,0.80390906,-0.6106352,0.032470595,99.7061,0.10488099,0.3783978,0.39004773,0.14251675,0.10344288,inf,inf,inf,inf,1,1,1,1,3,1,3,2,6,1,1,1,0
668992658,668991538,31044075,49.078753500000005,2.2543773,-0.22457513,-0.88939756,0.50781053,-0.0069100135,-0.00015225113,0.25713933,-0.018649582,-0.021256756,-0.021413526,0.0012447584,-0.036898524,0.010050106,0.041895274,-1.3412131,-1.7620888,-0.50466394,-0.6108508,0.032470595,99.7061,0.1045627,0.3792148,0.3907106,0.14297394,0.103629835,inf,inf,inf,inf,1,1,1,1,3,1,3,2,6,1,1,1,0
669003239,669001542,31044075,49.078753500000005,2.2543773,-0.22464064,-0.8894052,0.5080324,-0.0069100135,-0.00015225113,0.25713933,-0.0038572869,-0.0059916535,-0.02054204,0.0023090122,-0.036898524,0.010050106,0.041895274,0.5571556,-0.28905427,-0.26818666,-0.61089784,0.032470595,99.7061,0.10608041,0.38003653,0.38895145,0.14343262,0.10354748,inf,inf,inf,inf,1,1,1,1,3,1,3,2,6,1,1,1,0
669012660,669011547,31044075,49.078753500000005,2.2543773,-0.22472185,-0.88943464,0.5082215,-0.0069100135,-0.00015225113,0.25713933,-0.0050110607,-0.00247892,-0.019764714,0.0032614106,-0.036898524,0.010050106,0.041895274,2.307819,2.9984648,0.7196987,-0.61092085,0.032470595,99.7061,0.105725944,0.3808631,0.3896145,0.14386529,0.10373077,inf,inf,inf,inf,1,1,1,1,3,1,3,2,6,1,1,1,0
669022755,669021553,31044075,49.078753500000005,2.2543773,-0.22477245,-0.88943255,0.5083916,-0.0069100135,-0.00015225113,0.25713933,-0.012086269,-0.013210296,-0.021407519,0.001776551,-0.036898524,0.010050106,0.041895274,-1.2513115,-1.333546,0.49950758,-0.61093426,0.032470595,99.7061,0.105383575,0.38169438,0.39027968,0.14433464,0.10391542,inf,inf,inf,inf,1,1,1,1,3,1,3,2,6,1,1,1,0
669032875,669031561,31044075,49.078753500000005,2.2543773,-0.22484665,-0.8894525,0.508575,-0.0069100135,-0.00015225113,0.25713933,-0.0039479965,-0.004996386,-0.026006358,-0.002680682,-0.036898524,0.010050106,0.041895274,1.3838263,0.69917446,-2.177157,-0.6109821,0.032470595,99.7061,0.10497612,0.3825305,0.39094704,0.1448071,0.104097664,inf,inf,inf,inf,1,1,1,1,3,1,3,2,6,1,1,1,0
669043880,669041566,31044075,49.078753500000005,2.2543773,-0.2250573,-0.8891476,0.5087853,-0.0069100135,-0.00015225113,0.25713933,-0.0155772315,-0.014438404,-0.014014462,0.009471509,-0.036898524,0.010050106,0.041895274,-0.5582908,-0.59050816,0.6317749,-0.6110815,0.032470595,99.7061,0.10537624,0.36772493,0.3874645,0.13640557,0.10159026,inf,inf,inf,inf,1,1,1,1,3,1,3,2,6,1,1,1,0
669052809,669051572,31044075,49.078753500000005,2.2543773,-0.22523434,-0.8888554,0.5089929,-0.0069100135,-0.00015225113,0.25713933,-0.013019878,-0.0160829,-0.013397917,0.010231761,-0.036898524,0.010050106,0.041895274,-2.2637837,-2.1936722,1.586625,-0.61105806,0.032470595,99.7061,0.105002165,0.36847788,0.3881088,0.13683963,0.101771705,inf,inf,inf,inf,1,1,1,1,3,1,3,2,6,1,1,1,0
669063116,669061579,31044075,49.078753500000005,2.2543773,-0.22543906,-0.8886179,0.50927967,-0.0069100135,-0.00015225113,0.25713933,0.0005329317,-0.0034700285,-0.018555805,0.0052671568,-0.036898524,0.010050106,0.041895274,3.4237878,3.1098955,-1.0138733,-0.6109625,0.032470595,99.7061,0.10617268,0.3692353,0.38637906,0.13727257,0.101700544,inf,inf,inf,inf,1,1,1,1,3,1,3,2,6,1,1,1,0
669072786,669071583,31044075,49.078753500000005,2.2543773,-0.22562388,-0.88840085,0.50954545,-0.0069100135,-0.00015225113,0.25713933,-0.017976278,-0.025570465,-0.0176303,0.006367768,-0.036898524,0.010050106,0.041895274,-1.424539,-1.9638333,-1.0817126,-0.6110035,0.032470595,99.7061,0.10575247,0.36999723,0.38702357,0.13772298,0.10188718,inf,inf,inf,inf,1,1,1,1,3,1,3,2,6,1,1,1,0
669082972,669081589,31044075,49.078753500000005,2.2543773,-0.2257687,-0.8881641,0.50980806,-0.0069100135,-0.00015225113,0.25713933,-0.006210565,-0.015526961,-0.006792717,0.017363003,-0.036898524,0.010050106,0.041895274,-1.4024643,-2.649896,1.732268,-0.6110095,0.032470595,99.7061,0.10533422,0.37076372,0.38767022,0.1381525,0.10206822,inf,inf,inf,inf,1,1,1,1,3,1,3,2,6,1,1,1,0
669092814,669091596,31044075,49.078753500000005,2.2543773,-0.22596908,-0.88799936,0.5100491,-0.0069100135,-0.00015225113,0.25713933,-0.00027196895,-0.0037770732,-0.014239265,0.010057428,-0.036898524,0.010050106,0.041895274,3.95881,4.316857,0.8866568,-0.61090374,0.032470595,99.7061,0.1049549,0.3715347,0.38831896,0.1385933,0.102247976,inf,inf,inf,inf,1,1,1,1,3,1,3,2,6,1,1,1,0
669102827,669101603,31044075,49.078753500000005,2.2543773,-0.22614847,-0.88782054,0.51026547,-0.0069100135,-0.00015225113,0.25713933,-0.019626882,-0.023127016,-0.02295249,0.0014690624,-0.036898524,0.010050106,0.041895274,-1.9968766,-1.3907617,-2.056565,-0.61092407,0.032470595,99.7061,0.104569554,0.37231028,0.38896978,0.1390567,0.1024334,inf,inf,inf,inf,1,1,1,1,3,1,3,2,6,1,1,1,0
669113001,669111609,31044075,49.078753500000005,2.2543773,-0.22633694,-0.88764334,0.51067877,-0.0069100135,-0.00015225113,0.25713933,-0.008263144,-0.01353423,-0.013447656,0.011316095,-0.036898524,0.010050106,0.041895274,-0.11482021,-0.9554353,0.6631439,-0.61091053,0.032470595,99.7061,0.10967857,0.3730905,0.38723078,0.13949645,0.102357455,inf,inf,inf,inf,1,1,1,1,3,1,3,2,6,1,1,1,0
669122821,669121798,31044075,49.078753500000005,2.2543773,-0.22657213,-0.8875258,0.51105285,-0.0069100135,-0.00015225113,0.25713933,-0.011055735,-0.013407133,-0.015857987,0.009222943,-0.036898524,0.010050106,0.041895274,2.1320853,1.9277537,1.5103165,-0.610906,0.032470595,99.7061,0.10912877,0.37387532,0.38788182,0.13993748,0.10254,inf,inf,inf,inf,1,1,1,1,3,1,3,2,6,1,1,1,0
669133708,669131767,31044075,49.078753500000005,2.2543773,-0.22675204,-0.8873828,0.5114293,-0.0069100135,-0.00015225113,0.25713933,-0.0144765,-0.017797416,-0.020231243,0.0051427796,-0.036898524,0.010050106,0.041895274,-1.2219551,-0.7292851,-0.787953,-0.6107757,0.032470595,99.7061,0.10857135,0.37466475,0.38853496,0.14038786,0.10272426,inf,inf,inf,inf,1,1,1,1,3,1,3,2,6,1,1,1,0
669142735,669141714,31044075,49.078753500000005,2.2543773,-0.22694282,-0.8872469,0.51179296,-0.0069100135,-0.00015225113,0.25713933,-0.0026646368,-0.010020709,-0.017200625,0.008443338,-0.036898524,0.010050106,0.041895274,2.5339146,1.012616,-0.6537715,-0.6107757,0.032470595,99.7061,0.107994914,0.37545887,0.38919026,0.14084993,0.10290551,inf,inf,inf,inf,1,1,1,1,3,1,3,2,6,1,1,1,0
669153719,669151672,31044075,49.078753500000005,2.2543773,-0.22714087,-0.88713694,0.51213586,-0.0069100135,-0.00015225113,0.25713933,-0.01771963,-0.019791666,-0.015955957,0.009935613,-0.036898524,0.010050106,0.041895274,-0.43766168,-0.5352369,0.05731111,-0.6109957,0.032470595,99.7061,0.10747349,0.37625766,0.38984764,0.14125225,0.10309039,inf,inf,inf,inf,1,1,1,1,3,1,3,2,6,1,1,1,0
669162807,669161639,31044075,49.078753500000005,2.2543773,-0.22729927,-0.8870224,0.5126171,-0.0069100135,-0.00015225113,0.25713933,-0.016227286,-0.017271973,-0.012553123,0.013712674,-0.036898524,0.010050106,0.041895274,-3.1411092,-1.456718,0.8321194,-0.6110108,0.032470595,99.7061,0.110512435,0.37706098,0.38809898,0.14169659,0.10301278,inf,inf,inf,inf,1,1,1,1,3,1,3,2,6,1,1,1,0
669173793,669171644,31044075,49.078753500000005,2.2543773,-0.22749855,-0.8869611,0.51307195,-0.0069100135,-0.00015225113,0.25713933,0.0012055769,-0.00880851,-0.016778076,0.009834748,-0.036898524,0.010050106,0.041895274,4.017088,3.1180036,-0.0073345006,-0.6110492,0.032470595,99.7061,0.10992336,0.377869,0.3887566,0.142163,0.10319332,inf,inf,inf,inf,1,1,1,1,3,1,3,2,6,1,1,1,0
669182723,669181650,31044075,49.078753500000005,2.2543773,-0.22769201,-0.8868986,0.51351917,-0.0069100135,-0.00015225113,0.25713933,-0.018719524,-0.024136122,-0.019087182,0.007846654,-0.036898524,0.010050106,0.041895274,-0.37205926,-1.0682604,-1.7489394,-0.61118525,0.032470595,99.7061,0.10932231,0.37868184,0.3894163,0.14260776,0.10338014,inf,inf,inf,inf,1,1,1,1,3,1,3,2,6,1,1,1,0
669193527,669191655,31044075,49.078753500000005,2.2543773,-0.22783816,-0.8868242,0.51392317,-0.0069100135,-0.00015225113,0.25713933,-0.014540251,-0.017394679,-0.01206025,0.015169513,-0.036898524,0.010050106,0.041895274,-3.0487785,-1.5819317,1.0265648,-0.6112244,0.032470595,99.7061,0.10882074,0.37949935,0.3900782,0.14301644,0.103561185,inf,inf,inf,inf,1,1,1,1,3,1,3,2,6,1,1,1,0
669203413,669201662,31044075,49.078753500000005,2.2543773,-0.22801942,-0.8867853,0.51432925,-0.0069100135,-0.00015225113,0.25713933,-0.0017092924,-0.011195367,-0.015352757,0.012148914,-0.036898524,0.010050106,0.041895274,2.8117595,2.1276813,-0.0997977,-0.611215,0.032470595,99.7061,0.10833496,0.3803215,0.3907422,0.14349368,0.103742994,inf,inf,inf,inf,1,1,1,1,3,1,3,2,6,1,1,1,0
669213530,669211667,31044075,49.078753500000005,2.2543773,-0.22817744,-0.88673323,0.51470137,-0.0069100135,-0.00015225113,0.25713933,-0.016464084,-0.01956707,-0.01670733,0.011043103,-0.036898524,0.010050106,0.041895274,-1.2094641,-0.63002765,-0.3233788,-0.6110922,0.032470595,99.7061,0.10780007,0.3811485,0.39140835,0.14397646,0.10393002,inf,inf,inf,inf,1,1,1,1,3,1,3,2,6,1,1,1,0
669223616,669221673,31044075,49.078753500000005,2.2543773,-0.22834149,-0.8866813,0.51520884,-0.0069100135,-0.00015225113,0.25713933,-0.010304812,-0.0146489935,-0.015681025,0.012465105,-0.036898524,0.010050106,0.041895274,-0.59636396,-0.40658998,0.32520747,-0.6110518,0.032470595,99.7061,0.11128628,0.38198033,0.38963953,0.14439207,0.103844084,inf,inf,inf,inf,1,1,1,1,3,1,3,2,6,1,1,1,0
669233848,669231679,31044075,49.078753500000005,2.2543773,-0.22856914,-0.8866517,0.51570636,-0.0069100135,-0.00015225113,0.25713933,-0.0158351,-0.017228272,-0.018080428,0.010432448,-0.036898524,0.010050106,0.041895274,1.0479182,-0.053567044,-0.7870565,-0.61120516,0.032470595,99.7061,0.11066866,0.38281685,0.39030582,0.14485967,0.10402792,inf,inf,inf,inf,1,1,1,1,3,1,3,2,6,1,1,1,0
669243471,669241686,31044075,49.078753500000005,2.2543773,-0.22876939,-0.88661426,0.5161761,-0.0069100135,-0.00015225113,0.25713933,-0.024993764,-0.02029827,-0.011793769,0.01705822,-0.036898524,0.010050106,0.041895274,-3.337562,-1.8854967,1.0117184,-0.61116153,0.032470595,99.7061,0.11004776,0.38365826,0.39097428,0.14532731,0.10421221,inf,inf,inf,inf,1,1,1,1,3,1,3,2,6,1,1,1,0
669255128,669251695,31044075,49.078753500000005,2.2543773,-0.22915289,-0.88650703,0.516712,-0.0069100135,-0.00015225113,0.25713933,-0.007537309,-0.015603648,-0.00968897,0.019539483,-0.036898524,0.010050106,0.041895274,2.0244844,0.77047306,1.1342747,-0.61100495,0.032470595,99.7061,0.11088765,0.36868426,0.3874793,0.13684587,0.10169287,inf,inf,inf,inf,1,1,1,1,3,1,3,2,6,1,1,1,0
669263445,669261698,31044075,49.078753500000005,2.2543773,-0.22952867,-0.8864189,0.51726186,-0.0069100135,-0.00015225113,0.25713933,-0.012719746,-0.021512939,-0.011921386,0.017655218,-0.036898524,0.010050106,0.041895274,2.2031095,-0.21997072,-0.838277,-0.6110719,0.032470595,99.7061,0.11020559,0.36944145,0.3881246,0.13727942,0.101877406,inf,inf,inf,inf,1,1,1,1,3,1,3,2,6,1,1,1,0
669273771,669271704,31044075,49.078753500000005,2.2543773,-0.22984095,-0.8863403,0.51790196,-0.0069100135,-0.00015225113,0.25713933,-0.020276356,-0.0211876,-0.008559794,0.021468684,-0.036898524,0.010050106,0.041895274,-3.009029,-0.85494447,0.6004318,-0.6111351,0.032470595,99.7061,0.11267215,0.37020314,0.38639557,0.13770612,0.10180758,inf,inf,inf,inf,1,1,1,1,3,1,3,2,6,1,1,1,0
669283643,669281709,31044075,49.078753500000005,2.2543773,-0.2301532,-0.88628024,0.5185064,-0.0069100135,-0.00015225113,0.25713933,-0.005365019,-0.01563458,-0.011224282,0.01922403,-0.036898524,0.010050106,0.041895274,1.0311913,1.2327539,0.5117756,-0.61103964,0.032470595,99.7061,0.11195552,0.37096933,0.3870411,0.13816194,0.10198704,inf,inf,inf,inf,1,1,1,1,3,1,3,2,6,1,1,1,0
669293324,669291715,31044075,49.078753500000005,2.2543773,-0.23047544,-0.8862339,0.51910424,-0.0069100135,-0.00015225113,0.25713933,-0.012494876,-0.023987643,-0.016546791,0.014290636,-0.036898524,0.010050106,0.041895274,1.0706439,-0.57499254,-2.1828997,-0.6109214,0.032470595,99.7061,0.11121333,0.3717401,0.38768873,0.13861208,0.10217285,inf,inf,inf,inf,1,1,1,1,3,1,3,2,6,1,1,1,0
669303843,669301722,31044075,49.078753500000005,2.2543773,-0.23076414,-0.88620996,0.5196186,-0.0069100135,-0.00015225113,0.25713933,-0.017169002,-0.023474645,-0.014006556,0.017190421,-0.036898524,0.010050106,0.041895274,-2.3117857,-0.87118644,0.39594555,-0.61099696,0.032470595,99.7061,0.110575914,0.37251544,0.38833848,0.13902903,0.10235427,inf,inf,inf,inf,1,1,1,1,3,1,3,2,6,1,1,1,0
669313359,669311727,31044075,49.078753500000005,2.2543773,-0.23106664,-0.8862018,0.52011365,-0.0069100135,-0.00015225113,0.25713933,-0.010931286,-0.022662021,-0.01516424,0.016363898,-0.036898524,0.010050106,0.041895274,-0.08298762,-0.2766689,0.12350628,-0.61110544,0.032470595,99.7061,0.10997677,0.37329534,0.38899034,0.13948385,0.10253467,inf,inf,inf,inf,1,1,1,1,3,1,3,2,6,1,1,1,0
669323936,669321733,31044075,49.078753500000005,2.2543773,-0.2313678,-0.8862143,0.5205922,-0.0069100135,-0.00015225113,0.25713933,-0.011970416,-0.021665143,-0.015272073,0.016559891,-0.036898524,0.010050106,0.041895274,0.38438934,0.5493792,-0.30644718,-0.6107626,0.032470595,99.7061,0.109368384,0.37407985,0.3896443,0.13993265,0.10271963,inf,inf,inf,inf,1,1,1,1,3,1,3,2,6,1,1,1,0
669333518,669331739,31044075,49.078753500000005,2.2543773,-0.2316677,-0.886241,0.5211179,-0.0069100135,-0.00015225113,0.25713933,-0.00994871,-0.023408754,-0.014653082,0.01755687,-0.036898524,0.010050106,0.041895274,0.9817372,0.28378373,1.0531355,-0.61077166,0.032470595,99.7061,0.11117685,0.37486902,0.38789603,0.14037344,0.10264289,inf,inf,inf,inf,1,1,1,1,3,1,3,2,6,1,1,1,0
669343745,669341747,31044075,49.078753500000005,2.2543773,-0.23197845,-0.88628024,0.5216349,-0.0069100135,-0.00015225113,0.25713933,-0.014535381,-0.023627779,-0.01782564,0.014732545,-0.036898524,0.010050106,0.041895274,0.4897762,0.18619376,-0.5155647,-0.61102927,0.032470595,99.7061,0.11052203,0.3756628,0.3885502,0.14082763,0.102826476,inf,inf,inf,inf,1,1,1,1,3,1,3,2,6,1,1,1,0
669353518,669351753,31044075,49.078753500000005,2.2543773,-0.23227416,-0.8863398,0.52215374,-0.0069100135,-0.00015225113,0.25713933,-0.021705296,-0.029516727,-0.015426054,0.017451864,-0.036898524,0.010050106,0.041895274,-2.6350064,-1.1934401,-1.1408075,-0.61090994,0.032470595,99.7061,0.10988647,0.37646127,0.3892065,0.14125106,0.10301066,inf,inf,inf,inf,1,1,1,1,3,1,3,2,6,1,1,1,0
669363698,669361758,31044075,49.078753500000005,2.2543773,-0.2325629,-0.8864156,0.522639,-0.0069100135,-0.00015225113,0.25713933,-0.0094196005,-0.02518519,-0.009309114,0.023861162,-0.036898524,0.010050106,0.041895274,0.24050324,-0.15386675,1.3796474,-0.61082107,0.032470595,99.7061,0.10932469,0.37726435,0.38986492,0.14168991,0.103190936,inf,inf,inf,inf,1,1,1,1,3,1,3,2,6,1,1,1,0
669373532,669371763,31044075,49.078753500000005,2.2543773,-0.23287642,-0.8865137,0.5231119,-0.0069100135,-0.00015225113,0.25713933,-0.010173168,-0.022150893,-0.013910724,0.019525649,-0.036898524,0.010050106,0.041895274,2.511631,1.7712119,0.17277795,-0.6108849,0.032470595,99.7061,0.10877383,0.37807208,0.39052543,0.14214556,0.10337487,inf,inf,inf,inf,1,1,1,1,3,1,3,2,6,1,1,1,0
669383942,669381961,31044075,49.078753500000005,2.2543773,-0.23317444,-0.8866006,0.5237313,-0.0069100135,-0.00015225113,0.25713933,-0.024120612,-0.025815468,-0.01596113,0.01787963,-0.036898524,0.010050106,0.041895274,-2.3843853,-0.0038270736,-1.2713473,-0.61090565,0.032470595,99.7061,0.11209726,0.37888455,0.3887674,0.1425817,0.103295855,inf,inf,inf,inf,1,1,1,1,3,1,3,2,6,1,1,1,0
669393493,669391912,31044075,49.078753500000005,2.2543773,-0.23349896,-0.88665634,0.5243127,-0.0069100135,-0.00015225113,0.25713933,-0.019198485,-0.023516607,-0.009396933,0.02481678,-0.036898524,0.010050106,0.041895274,-0.9796063,-0.9733113,1.1066139,-0.6109661,0.032470595,99.7061,0.11145103,0.3797017,0.3894281,0.14304022,0.10347666,inf,inf,inf,inf,1,1,1,1,3,1,3,2,6,1,1,1,0
669403757,669401874,31044075,49.078753500000005,2.2543773,-0.2338538,-0.8867235,0.5249138,-0.0069100135,-0.00015225113,0.25713933,-0.014322787,-0.018060759,-0.009779627,0.024776762,-0.036898524,0.010050106,0.041895274,2.4268162,1.0652386,-0.2640331,-0.6108166,0.032470595,99.7061,0.11074221,0.38052365,0.39009097,0.14350972,0.10366124,inf,inf,inf,inf,1,1,1,1,3,1,3,2,6,1,1,1,0
669413426,669411830,31044075,49.078753500000005,2.2543773,-0.23418522,-0.88677216,0.5255078,-0.0069100135,-0.00015225113,0.25713933,-0.0204917,-0.016527876,-0.002917957,0.031952087,-0.036898524,0.010050106,0.041895274,0.1938063,1.010526,1.0546565,-0.6107724,0.032470595,99.7061,0.11002672,0.3813504,0.39075598,0.14395091,0.10384505,inf,inf,inf,inf,1,1,1,1,3,1,3,2,6,1,1,1,0
669423624,669421797,31044075,49.078753500000005,2.2543773,-0.23451808,-0.8868143,0.52607775,-0.0069100135,-0.00015225113,0.25713933,-0.021458784,-0.021197509,-0.010902276,0.02425347,-0.036898524,0.010050106,0.041895274,-0.54960096,-0.8022402,-0.65717673,-0.61094666,0.032470595,99.7061,0.10933924,0.3821819,0.39142314,0.1444062,0.10402746,inf,inf,inf,inf,1,1,1,1,3,1,3,2,6,1,1,1,0
669433619,669431800,31044075,49.078753500000005,2.2543773,-0.23485462,-0.8868461,0.5269566,-0.0069100135,-0.00015225113,0.25713933,-0.02194589,-0.013409152,-0.008836165,0.02691039,-0.036898524,0.010050106,0.041895274,-0.50714177,0.3921435,-1.0475439,-0.6108461,0.032470595,99.7061,0.11648798,0.38301823,0.38965496,0.14485851,0.10394308,inf,inf,inf,inf,1,1,1,1,3,1,3,2,6,1,1,1,0
669443103,669441807,31044075,49.078753500000005,2.2543773,-0.23520307,-0.8868736,0.5277628,-0.0069100135,-0.00015225113,0.25713933,-0.022541583,-0.013183284,-0.009127443,0.027169554,-0.036898524,0.010050106,0.041895274,-0.093222834,0.8307856,0.66842693,-0.6108853,0.032470595,99.7061,0.115573704,0.38385937,0.39032227,0.14530881,0.10412639,inf,inf,inf,inf,1,1,1,1,3,1,3,2,6,1,1,1,0
669454693,669451814,31044075,49.078753500000005,2.2543773,-0.23555678,-0.8866239,0.52850413,-0.0069100135,-0.00015225113,0.25713933,-0.020477828,-0.012637943,-0.014156008,0.022632211,-0.036898524,0.010050106,0.041895274,0.8754547,0.06452963,-0.37867743,-0.6110817,0.032470595,99.7061,0.11421919,0.3688719,0.3868472,0.13685164,0.10161583,inf,inf,inf,inf,1,1,1,1,3,1,3,2,6,1,1,1,0
669463013,669461820,31044075,49.078753500000005,2.2543773,-0.23588462,-0.8863737,0.5292336,-0.0069100135,-0.00015225113,0.25713933,-0.024230594,-0.012082911,-0.011561949,0.02568106,-0.036898524,0.010050106,0.041895274,-1.0063542,-0.3328853,-0.91917735,-0.61114186,0.032470595,99.7061,0.113360524,0.36962882,0.3874914,0.13728276,0.10179906,inf,inf,inf,inf,1,1,1,1,3,1,3,2,6,1,1,1,0
669473501,669471827,31044075,49.078753500000005,2.2543773,-0.23619658,-0.88611996,0.5299009,-0.0069100135,-0.00015225113,0.25713933,-0.022205,-0.011748329,-0.011072549,0.02659015,-0.036898524,0.010050106,0.041895274,-1.3055532,-0.8974006,0.80812645,-0.611309,0.032470595,99.7061,0.112603426,0.3703902,0.3881377,0.13770081,0.10197916,inf,inf,inf,inf,1,1,1,1,3,1,3,2,6,1,1,1,0
669482972,669481833,31044075,49.078753500000005,2.2543773,-0.23651701,-0.88587004,0.5305274,-0.0069100135,-0.00015225113,0.25713933,-0.015319367,-0.003982692,-0.015255352,0.022793412,-0.036898524,0.010050106,0.041895274,1.5460994,1.146907,0.108826265,-0.61114645,0.032470595,99.7061,0.11189562,0.3711561,0.38878608,0.1381581,0.10216113,inf,inf,inf,inf,1,1,1,1,3,1,3,2,6,1,1,1,0
669493563,669491837,31044075,49.078753500000005,2.2543773,-0.23685798,-0.88564235,0.53114676,-0.0069100135,-0.00015225113,0.25713933,-0.023373526,-0.010850759,-0.0134771215,0.024924088,-0.036898524,0.010050106,0.041895274,0.73278916,0.2523469,-0.6776083,-0.61110306,0.032470595,99.7061,0.1111325,0.37192658,0.38704804,0.13861422,0.10209119,inf,inf,inf,inf,1,1,1,1,3,1,3,2,6,1,1,1,0
669502948,669501849,31044075,49.078753500000005,2.2543773,-0.23718876,-0.88542,0.5317312,-0.0069100135,-0.00015225113,0.25713933,-0.029979363,-0.0150513565,-0.010964529,0.027758198,-0.036898524,0.010050106,0.041895274,-2.3936763,-2.026069,0.5915166,-0.6113266,0.032470595,99.7061,0.11045396,0.37270167,0.38769662,0.13903095,0.10227263,inf,inf,inf,inf,1,1,1,1,3,1,3,2,6,1,1,1,0
669513135,669511851,31044075,49.078753500000005,2.2543773,-0.2375305,-0.88522416,0.53229237,-0.0069100135,-0.00015225113,0.25713933,-0.022474863,-0.0074417605,-0.015473244,0.023541303,-0.036898524,0.010050106,0.041895274,-0.15103315,0.436464,-0.6188174,-0.6111448,0.032470595,99.7061,0.10982835,0.37348124,0.38834736,0.1394738,0.10245395,inf,inf,inf,inf,1,1,1,1,3,1,3,2,6,1,1,1,0
669523067,669521855,31044075,49.078753500000005,2.2543773,-0.23788661,-0.8850514,0.5328523,-0.0069100135,-0.00015225113,0.25713933,-0.021758791,-0.010050526,-0.007445136,0.031832702,-0.036898524,0.010050106,0.041895274,1.5415902,0.90875787,0.39822006,-0.610958,0.032470595,99.7061,0.10923487,0.37426546,0.38900018,0.13989115,0.10263705,inf,inf,inf,inf,1,1,1,1,3,1,3,2,6,1,1,1,0
669533081,669531861,31044075,49.078753500000005,2.2543773,-0.23822045,-0.88487387,0.5333535,-0.0069100135,-0.00015225113,0.25713933,-0.025459545,-0.011650836,-0.011003013,0.02851059,-0.036898524,0.010050106,0.041895274,-0.29132345,-0.4943367,1.5153528,-0.6112044,0.032470595,99.7061,0.10869032,0.3750542,0.38965514,0.1403632,0.10281992,inf,inf,inf,inf,1,1,1,1,3,1,3,2,6,1,1,1,0
669543259,669541866,31044075,49.078753500000005,2.2543773,-0.23854706,-0.8847155,0.5338942,-0.0069100135,-0.00015225113,0.25713933,-0.022066858,-0.009457624,-0.01735053,0.02241392,-0.036898524,0.010050106,0.041895274,0.16406193,0.32683632,-1.6705652,-0.6112964,0.032470595,99.7061,0.10909605,0.37584767,0.3879076,0.14080113,0.10274322,inf,inf,inf,inf,1,1,1,1,3,1,3,2,6,1,1,1,0
669553107,669551871,31044075,49.078753500000005,2.2543773,-0.23886241,-0.88457036,0.534406,-0.0069100135,-0.00015225113,0.25713933,-0.022447996,-0.012257433,-0.007978355,0.03200979,-0.036898524,0.010050106,0.041895274,0.050136432,-0.14957647,0.72838634,-0.61133957,0.032470595,99.7061,0.10852051,0.3766457,0.38856274,0.1412484,0.10292592,inf,inf,inf,inf,1,1,1,1,3,1,3,2,6,1,1,1,0
669563110,669561877,31044075,49.078753500000005,2.2543773,-0.23914152,-0.8844098,0.5348989,-0.0069100135,-0.00015225113,0.25713933,-0.01827658,-0.008830529,-0.010009083,0.030176735,-0.036898524,0.010050106,0.041895274,-0.050601758,-0.4208377,0.8940702,-0.61142135,0.032470595,99.7061,0.10793686,0.37744847,0.38922003,0.14171365,0.10310835,inf,inf,inf,inf,1,1,1,1,3,1,3,2,6,1,1,1,0
669573292,669571885,31044075,49.078753500000005,2.2543773,-0.23942335,-0.8842926,0.5354029,-0.0069100135,-0.00015225113,0.25713933,-0.0130174775,-0.006311637,-0.009469221,0.03088934,-0.036898524,0.010050106,0.041895274,2.1292248,2.005381,-0.53409404,-0.61142755,0.032470595,99.7061,0.10732901,0.37825596,0.3898794,0.14215182,0.1032916,inf,inf,inf,inf,1,1,1,1,3,1,3,2,6,1,1,1,0
669583120,669581890,31044075,49.078753500000005,2.2543773,-0.23968266,-0.88418686,0.53589183,-0.0069100135,-0.00015225113,0.25713933,-0.02612081,-0.022304721,-0.0075227474,0.03298462,-0.036898524,0.010050106,0.041895274,-2.130464,-2.496034,-0.12575299,-0.6117366,0.032470595,99.7061,0.10674971,0.37906817,0.39054093,0.14259829,0.103474155,inf,inf,inf,inf,1,1,1,1,3,1,3,2,6,1,1,1,0
669593500,669591897,31044075,49.078753500000005,2.2543773,-0.23991296,-0.88408786,0.5363687,-0.0069100135,-0.00015225113,0.25713933,-0.016345978,-0.010391982,-0.006501565,0.03413048,-0.036898524,0.010050106,0.041895274,-1.5351534,-0.6007394,-0.004974025,-0.6115832,0.032470595,99.7061,0.10613358,0.37988508,0.38878357,0.14306273,0.10339218,inf,inf,inf,inf,1,1,1,1,3,1,3,2,6,1,1,1,0
669603126,669601902,31044075,49.078753500000005,2.2543773,-0.2402034,-0.88405573,0.53683007,-0.0069100135,-0.00015225113,0.25713933,-0.009640881,-0.0088954335,-0.0043551964,0.03637957,-0.036898524,0.010050106,0.041895274,4.012381,3.3943582,0.5230546,-0.6112946,0.032470595,99.7061,0.10554862,0.3807068,0.38944525,0.14350583,0.1035767,inf,inf,inf,inf,1,1,1,1,3,1,3,2,6,1,1,1,0
669612996,669611910,31044075,49.078753500000005,2.2543773,-0.2404694,-0.8840131,0.5372758,-0.0069100135,-0.00015225113,0.25713933,-0.027834391,-0.024837477,-0.004748859,0.0360676,-0.036898524,0.010050106,0.041895274,-1.7303315,-2.0671294,0.47993702,-0.6116427,0.032470595,99.7061,0.10499942,0.3815332,0.3901091,0.14394724,0.10376096,inf,inf,inf,inf,1,1,1,1,3,1,3,2,6,1,1,1,0
669623300,669621913,31044075,49.078753500000005,2.2543773,-0.2407198,-0.8839974,0.53771067,-0.0069100135,-0.00015225113,0.25713933,-0.01939607,-0.020674003,-0.011896954,0.028981,-0.036898524,0.010050106,0.041895274,-1.5876411,-1.6785896,-2.0318012,-0.6115298,0.032470595,99.7061,0.10444814,0.3823644,0.39077508,0.1444149,0.10394268,inf,inf,inf,inf,1,1,1,1,3,1,3,2,6,1,1,1,0
669633051,669631920,31044075,49.078753500000005,2.2543773,-0.24100555,-0.88403696,0.5381027,-0.0069100135,-0.00015225113,0.25713933,-0.014632223,-0.018786756,-0.0024861947,0.038434,-0.036898524,0.010050106,0.041895274,2.2397423,1.2328423,1.0448565,-0.6110802,0.032470595,99.7061,0.10395795,0.38320044,0.39144322,0.14483662,0.104125984,inf,inf,inf,inf,1,1,1,1,3,1,3,2,6,1,1,1,0
669644317,669642108,31044075,49.078753500000005,2.2543773,-0.24110341,-0.8838541,0.53838336,-0.0069100135,-0.00015225113,0.25713933,-0.028259296,-0.021259863,-0.0082351575,0.032661375,-0.036898524,0.010050106,0.041895274,-1.3840156,0.35796782,2.1916049,-0.6112485,0.032470595,99.7061,0.10245836,0.36835417,0.38794655,0.13646543,0.10161518,inf,inf,inf,inf,1,1,1,1,3,1,3,2,6,1,1,1,0
669653268,669652068,31044075,49.078753500000005,2.2543773,-0.24123813,-0.8837095,0.53860843,-0.0069100135,-0.00015225113,0.25713933,-0.020445678,-0.024535341,-0.022294173,0.018501379,-0.036898524,0.010050106,0.041895274,1.1228648,0.2581484,-3.4118063,-0.61120296,0.032470595,99.7061,0.10058385,0.3691069,0.38621846,0.13692671,0.10154623,inf,inf,inf,inf,1,1,1,1,3,1,3,2,6,1,1,1,0
669663406,669662021,31044075,49.078753500000005,2.2543773,-0.24138525,-0.8835848,0.53878546,-0.0069100135,-0.00015225113,0.25713933,-0.03063039,-0.03161082,-0.010555847,0.030126462,-0.036898524,0.010050106,0.041895274,-0.7703836,-1.9774051,0.1214862,-0.6113441,0.032470595,99.7061,0.10028356,0.3698642,0.38686162,0.13733287,0.10172832,inf,inf,inf,inf,1,1,1,1,3,1,3,2,6,1,1,1,0
669672981,669671979,31044075,49.078753500000005,2.2543773,-0.2414898,-0.8834672,0.53893787,-0.0069100135,-0.00015225113,0.25713933,-0.02719444,-0.023977827,-0.013348276,0.027209215,-0.036898524,0.010050106,0.041895274,-2.62068,-0.7052051,0.9983672,-0.61144954,0.032470595,99.7061,0.10004628,0.37062585,0.3875069,0.13778035,0.101909555,inf,inf,inf,inf,1,1,1,1,3,1,3,2,6,1,1,1,0
669683153,669681954,31044075,49.078753500000005,2.2543773,-0.24162747,-0.88338363,0.53910875,-0.0069100135,-0.00015225113,0.25713933,-0.011733476,-0.020118514,-0.0136595685,0.026762016,-0.036898524,0.010050106,0.041895274,3.6566281,2.1027913,-0.64897394,-0.61125064,0.032470595,99.7061,0.1,0.3713921,0.38815427,0.13821946,0.10209076,inf,inf,inf,inf,1,1,1,1,3,1,3,2,6,1,1,1,0
669693187,669691955,31044075,49.078753500000005,2.2543773,-0.24175641,-0.88328385,0.5392802,-0.0069100135,-0.00015225113,0.25713933,-0.026662776,-0.03029605,-0.005663126,0.03461208,-0.036898524,0.010050106,0.041895274,0.1988948,-1.8053206,1.206827,-0.6115422,0.032470595,99.7061,0.1,0.3721629,0.38880375,0.13865414,0.1022756,inf,inf,inf,inf,1,1,1,1,3,1,3,2,6,1,1,1,0
669703326,669701962,31044075,49.078753500000005,2.2543773,-0.2418419,-0.88320243,0.53939384,-0.0069100135,-0.00015225113,0.25713933,-0.023758808,-0.0226538,-0.0075280834,0.0325284,-0.036898524,0.010050106,0.041895274,-2.366414,-0.38215154,0.83538866,-0.61155295,0.032470595,99.7061,0.1,0.37293825,0.3870664,0.13909283,0.10220106,inf,inf,inf,inf,1,1,1,1,3,1,3,2,6,1,1,1,0
669713184,669711967,31044075,49.078753500000005,2.2543773,-0.2419475,-0.88313925,0.53953123,-0.0069100135,-0.00015225113,0.25713933,-0.011118101,-0.02046725,-0.0067987163,0.03303239,-0.036898524,0.010050106,0.041895274,2.5591555,1.4131514,-0.4177736,-0.6113704,0.032470595,99.7061,0.1,0.37371817,0.38771608,0.13952805,0.102382414,inf,inf,inf,inf,1,1,1,1,3,1,3,2,6,1,1,1,0
669723360,669721973,31044075,49.078753500000005,2.2543773,-0.24204092,-0.88306797,0.539636,-0.0069100135,-0.00015225113,0.25713933,-0.026997343,-0.025208857,-0.007936768,0.031662535,-0.036898524,0.010050106,0.041895274,-1.5214161,-0.61209387,0.29465666,-0.6115665,0.032470595,99.7061,0.1,0.37450266,0.38836786,0.13997345,0.102568224,inf,inf,inf,inf,1,1,1,1,3,1,3,2,6,1,1,1,0
669733194,669731979,31044075,49.078753500000005,2.2543773,-0.24213411,-0.8829929,0.53975254,-0.0069100135,-0.00015225113,0.25713933,-0.019476011,-0.018312981,-0.008261467,0.031100163,-0.036898524,0.010050106,0.041895274,-1.0519935,0.29086435,-0.76716423,-0.61140966,0.032470595,99.7061,0.1,0.3752918,0.38902178,0.1404436,0.10274933,inf,inf,inf,inf,1,1,1,1,3,1,3,2,6,1,1,1,0
669743326,669741987,31044075,49.078753500000005,2.2543773,-0.24226727,-0.88291025,0.5398651,-0.0069100135,-0.00015225113,0.25713933,-0.016814094,-0.016555496,-0.0020774866,0.037040893,-0.036898524,0.010050106,0.041895274,2.076517,0.80423325,0.89828074,-0.61138237,0.032470595,99.7061,0.1,0.3760856,0.38967782,0.14085454,0.1029311,inf,inf,inf,inf,1,1,1,1,3,1,3,2,6,1,1,1,0
669753342,669751991,31044075,49.078753500000005,2.2543773,-0.24237834,-0.88282096,0.5399503,-0.0069100135,-0.00015225113,0.25713933,-0.027266646,-0.018795986,-0.008842593,0.030039212,-0.036898524,0.010050106,0.041895274,-1.753279,-0.350058,0.87306917,-0.61155224,0.032470595,99.7061,0.1,0.376884,0.38793093,0.14132819,0.10285633,inf,inf,inf,inf,1,1,1,1,3,1,3,2,6,1,1,1,0
669763186,669761997,31044075,49.078753500000005,2.2543773,-0.2424979,-0.88273543,0.5400568,-0.0069100135,-0.00015225113,0.25713933,-0.016594263,-0.015717464,-0.013906775,0.02473299,-0.036898524,0.010050106,0.041895274,0.66625804,0.10120593,-2.5719056,-0.6113232,0.032470595,99.7061,0.1,0.37768722,0.38858715,0.14182447,0.10303827,inf,inf,inf,inf,1,1,1,1,3,1,3,2,6,1,1,1,0
669773199,669772005,31044075,49.078753500000005,2.2543773,-0.24265827,-0.8826424,0.5401206,-0.0069100135,-0.00015225113,0.25713933,-0.025675587,-0.016854068,-0.0050074696,0.033385225,-0.036898524,0.010050106,0.041895274,0.5635313,-0.6826704,0.94832397,-0.6113208,0.032470595,99.7061,0.1,0.3784952,0.3892455,0.14222719,0.103222854,inf,inf,inf,inf,1,1,1,1,3,1,3,2,6,1,1,1,0
669783093,669782009,31044075,49.078753500000005,2.2543773,-0.2427937,-0.8825431,0.54016215,-0.0069100135,-0.00015225113,0.25713933,-0.03282987,-0.009113741,-0.008161848,0.029979067,-0.036898524,0.010050106,0.041895274,-3.6856635,0.8320613,1.5441167,-0.61145735,0.032470595,99.7061,0.1,0.37930772,0.38990602,0.14268374,0.1034048,inf,inf,inf,inf,1,1,1,1,3,1,3,2,6,1,1,1,0
669793396,669792016,31044075,49.078753500000005,2.2543773,-0.24295287,-0.88245374,0.5402332,-0.0069100135,-0.00015225113,0.25713933,-0.012740961,-0.0113915885,-0.013095171,0.024789372,-0.036898524,0.010050106,0.041895274,2.5698946,1.011624,-1.7484821,-0.61120445,0.032470595,99.7061,0.1,0.38012505,0.39056864,0.14313231,0.10358543,inf,inf,inf,inf,1,1,1,1,3,1,3,2,6,1,1,1,0
669803122,669802021,31044075,49.078753500000005,2.2543773,-0.24312857,-0.8823329,0.5402638,-0.0069100135,-0.00015225113,0.25713933,-0.025322374,-0.012078979,-0.007977137,0.029646859,-0.036898524,0.010050106,0.041895274,1.4537534,-1.0741957,0.658222,-0.6112836,0.032470595,99.7061,0.1,0.3809471,0.3912334,0.1435523,0.10377104,inf,inf,inf,inf,1,1,1,1,3,1,3,2,6,1,1,1,0
669813755,669812027,31044075,49.078753500000005,2.2543773,-0.24326636,-0.8822295,0.5403985,-0.0069100135,-0.00015225113,0.25713933,-0.02975127,-0.0055774804,-0.014220452,0.02327953,-0.036898524,0.010050106,0.041895274,-2.8388145,1.1089702,0.446742,-0.61136043,0.032470595,99.7061,0.1,0.38177383,0.38946643,0.14400934,0.10368696,inf,inf,inf,inf,1,1,1,1,3,1,3,2,6,1,1,1,0
669823101,669822033,31044075,49.078753500000005,2.2543773,-0.243471,-0.8821118,0.5405283,-0.0069100135,-0.00015225113,0.25713933,-0.022658164,-0.011845969,-0.01675965,0.020606527,-0.036898524,0.010050106,0.041895274,1.488298,-0.9816818,-1.2084165,-0.61135924,0.032470595,99.7061,0.1,0.38260537,0.39013132,0.14445725,0.10386829,inf,inf,inf,inf,1,1,1,1,3,1,3,2,6,1,1,1,0
669833648,669832039,31044075,49.078753500000005,2.2543773,-0.24367413,-0.88198256,0.540629,-0.0069100135,-0.00015225113,0.25713933,-0.031325035,-0.0030859848,-0.010476581,0.026746465,-0.036898524,0.010050106,0.041895274,-0.54059756,0.22535786,1.1678176,-0.61140907,0.032470595,99.7061,0.1,0.3834417,0.3907984,0.14491335,0.10405395,inf,inf,inf,inf,1,1,1,1,3,1,3,2,6,1,1,1,0
669843124,669842045,31044075,49.078753500000005,2.2543773,-0.24388906,-0.8818866,0.54074043,-0.0069100135,-0.00015225113,0.25713933,-0.025714455,-0.002839142,-0.01064558,0.02642549,-0.036898524,0.010050106,0.041895274,0.59374946,2.1712477,0.8756485,-0.6113448,0.032470595,99.7061,0.1,0.3842828,0.3914676,0.14536677,0.104235835,inf,inf,inf,inf,1,1,1,1,3,1,3,2,6,1,1,1,0
669854086,669852051,31044075,49.078753500000005,2.2543773,-0.24439475,-0.8817495,0.5408723,-0.0069100135,-0.00015225113,0.25713933,-0.027639633,-0.01582789,-0.009756218,0.027133934,-0.036898524,0.010050106,0.041895274,2.1149642,-1.9803095,-0.8672258,-0.6115698,0.032470595,99.7061,0.1,0.3692749,0.38795877,0.13687046,0.101715654,inf,inf,inf,inf,1,1,1,1,3,1,3,2,6,1,1,1,0
669863456,669862058,31044075,49.078753500000005,2.2543773,-0.24483675,-0.8816483,0.5410395,-0.0069100135,-0.00015225113,0.25713933,-0.037163064,-0.008181297,-0.0076682055,0.029097408,-0.036898524,0.010050106,0.041895274,-3.255355,0.07241086,0.63379043,-0.61168975,0.032470595,99.7061,0.1,0.37003168,0.3862314,0.1373338,0.1016483,inf,inf,inf,inf,1,1,1,1,3,1,3,2,6,1,1,1,0
669873248,669872063,31044075,49.078753500000005,2.2543773,-0.24526688,-0.8815891,0.5412211,-0.0069100135,-0.00015225113,0.25713933,-0.017659053,-0.014326826,-0.009371716,0.027259793,-0.036898524,0.010050106,0.041895274,1.3913038,0.30187714,-0.7596571,-0.6113138,0.032470595,99.7061,0.1,0.37079307,0.38687557,0.13779162,0.10182861,inf,inf,inf,inf,1,1,1,1,3,1,3,2,6,1,1,1,0
669883271,669882069,31044075,49.078753500000005,2.2543773,-0.2456964,-0.8815176,0.54137534,-0.0069100135,-0.00015225113,0.25713933,-0.020175556,-0.013706238,-0.008623099,0.027865266,-0.036898524,0.010050106,0.041895274,2.8493118,-0.99074215,-0.03168933,-0.6113508,0.032470595,99.7061,0.1,0.37155902,0.3875218,0.13820072,0.10201186,inf,inf,inf,inf,1,1,1,1,3,1,3,2,6,1,1,1,0
669893440,669892075,31044075,49.078753500000005,2.2543773,-0.24608107,-0.8814743,0.5415049,-0.0069100135,-0.00015225113,0.25713933,-0.033508483,-0.008450411,-0.009160718,0.027175838,-0.036898524,0.010050106,0.041895274,-3.094617,1.4408894,0.53366125,-0.6115823,0.032470595,99.7061,0.1,0.37232947,0.38817018,0.1386537,0.10219441,inf,inf,inf,inf,1,1,1,1,3,1,3,2,6,1,1,1,0
669903412,669902260,31044075,49.078753500000005,2.2543773,-0.24647672,-0.8814317,0.5416544,-0.0069100135,-0.00015225113,0.25713933,-0.019957468,-0.017541332,-0.0078854365,0.028291177,-0.036898524,0.010050106,0.041895274,0.111412704,-1.0834229,-0.42986408,-0.6113885,0.032470595,99.7061,0.1,0.37310448,0.38882065,0.1391131,0.10237401,inf,inf,inf,inf,1,1,1,1,3,1,3,2,6,1,1,1,0
669913784,669912218,31044075,49.078753500000005,2.2543773,-0.24688241,-0.8814034,0.5417499,-0.0069100135,-0.00015225113,0.25713933,-0.020026844,-0.012688245,-0.0058528734,0.030124467,-0.036898524,0.010050106,0.041895274,2.4148095,-0.22889033,0.9231092,-0.6113202,0.032470595,99.7061,0.1,0.37388408,0.387084,0.13953769,0.102302656,inf,inf,inf,inf,1,1,1,1,3,1,3,2,6,1,1,1,0
669923379,669922173,31044075,49.078753500000005,2.2543773,-0.2472555,-0.88141465,0.54183805,-0.0069100135,-0.00015225113,0.25713933,-0.027887978,-0.0108261835,-0.012521808,0.023250327,-0.036898524,0.010050106,0.041895274,-1.1785232,2.1288006,-0.86245644,-0.61138594,0.032470595,99.7061,0.1,0.3746683,0.3877347,0.14000423,0.10248522,inf,inf,inf,inf,1,1,1,1,3,1,3,2,6,1,1,1,0
669933315,669932135,31044075,49.078753500000005,2.2543773,-0.24764006,-0.88142705,0.5419441,-0.0069100135,-0.00015225113,0.25713933,-0.022441441,-0.024607603,-0.0028489109,0.032712396,-0.036898524,0.010050106,0.041895274,0.3461957,-2.1100402,0.30491242,-0.6114295,0.032470595,99.7061,0.1,0.3754572,0.3883875,0.14045753,0.102667056,inf,inf,inf,inf,1,1,1,1,3,1,3,2,6,1,1,1,0
669943297,669942105,31044075,49.078753500000005,2.2543773,-0.24802126,-0.8814589,0.5420242,-0.0069100135,-0.00015225113,0.25713933,-0.026842518,-0.017386835,-0.006967749,0.02837747,-0.036898524,0.010050106,0.041895274,-0.3853152,-0.8546473,0.79645735,-0.61160606,0.032470595,99.7061,0.1,0.37625077,0.38904244,0.14088032,0.102850184,inf,inf,inf,inf,1,1,1,1,3,1,3,2,6,1,1,1,0
669953151,669952111,31044075,49.078753500000005,2.2543773,-0.24838296,-0.8815397,0.5421047,-0.0069100135,-0.00015225113,0.25713933,-0.025594085,-0.018222973,-0.011359383,0.023764802,-0.036898524,0.010050106,0.041895274,-1.0960802,1.3597118,-1.2145028,-0.6115673,0.032470595,99.7061,0.1,0.3770489,0.38969946,0.14132662,0.10303199,inf,inf,inf,inf,1,1,1,1,3,1,3,2,6,1,1,1,0
669963648,669962117,31044075,49.078753500000005,2.2543773,-0.24876791,-0.88163286,0.5421698,-0.0069100135,-0.00015225113,0.25713933,-0.020706188,-0.030072467,-0.008661317,0.026237125,-0.036898524,0.010050106,0.041895274,1.6746672,-2.0827487,-0.55198276,-0.6115873,0.032470595,99.7061,0.1,0.3778517,0.39035866,0.14176963,0.10321567,inf,inf,inf,inf,1,1,1,1,3,1,3,2,6,1,1,1,0
669973340,669972123,31044075,49.078753500000005,2.2543773,-0.2491556,-0.88174766,0.5422575,-0.0069100135,-0.00015225113,0.25713933,-0.0335952,-0.018562285,-0.0101671945,0.024565637,-0.036898524,0.010050106,0.041895274,-1.5340652,0.7614155,0.6545474,-0.61191833,0.032470595,99.7061,0.1,0.3786592,0.38860232,0.14220978,0.10313714,inf,inf,inf,inf,1,1,1,1,3,1,3,2,6,1,1,1,0
669983539,669982129,31044075,49.078753500000005,2.2543773,-0.24954711,-0.8818604,0.542347,-0.0069100135,-0.00015225113,0.25713933,-0.030357534,-0.027507443,-0.009940118,0.024620095,-0.036898524,0.010050106,0.041895274,-1.5743245,-1.0704398,0.123068444,-0.61198986,0.032470595,99.7061,0.1,0.3794714,0.38926166,0.14266334,0.10331772,inf,inf,inf,inf,1,1,1,1,3,1,3,2,6,1,1,1,0
669993224,669992135,31044075,49.078753500000005,2.2543773,-0.24993819,-0.8819519,0.5424277,-0.0069100135,-0.00015225113,0.25713933,-0.018519262,-0.018857107,-0.008304013,0.026077043,-0.036898524,0.010050106,0.041895274,2.5524232,-0.5067782,0.6487443,-0.6119478,0.032470595,99.7061,0.1,0.3802883,0.38992313,0.14310937,0.103500925,inf,inf,inf,inf,1,1,1,1,3,1,3,2,6,1,1,1,0
670003512,670002141,31044075,49.078753500000005,2.2543773,-0.25032297,-0.8820824,0.5425179,-0.0069100135,-0.00015225113,0.25713933,-0.028728573,-0.015805252,-0.0061249924,0.028070724,-0.036898524,0.010050106,0.041895274,0.48291752,2.6317568,0.7869335,-0.6121697,0.032470595,99.7061,0.1,0.38110995,0.3905867,0.14356126,0.103685394,inf,inf,inf,inf,1,1,1,1,3,1,3,2,6,1,1,1,0
670013240,670012147,31044075,49.078753500000005,2.2543773,-0.25067672,-0.88219523,0.5426294,-0.0069100135,-0.00015225113,0.25713933,-0.030887768,-0.03095985,-0.006841016,0.027163247,-0.036898524,0.010050106,0.041895274,-2.3416746,-2.5444312,-0.3932599,-0.6121844,0.032470595,99.7061,0.1,0.38193637,0.39125246,0.14401267,0.10386715,inf,inf,inf,inf,1,1,1,1,3,1,3,2,6,1,1,1,0
670023525,670022153,31044075,49.078753500000005,2.2543773,-0.25102562,-0.8822997,0.5427697,-0.0069100135,-0.00015225113,0.25713933,-0.023771893,-0.018536512,-0.004775891,0.029063698,-0.036898524,0.010050106,0.041895274,-0.39282447,-0.91478866,-0.0007969003,-0.6121166,0.032470595,99.7061,0.1,0.3827676,0.3894861,0.14445432,0.103783116,inf,inf,inf,inf,1,1,1,1,3,1,3,2,6,1,1,1,0
670033456,670032159,31044075,49.078753500000005,2.2543773,-0.2513748,-0.8824386,0.54289186,-0.0069100135,-0.00015225113,0.25713933,-0.023301212,-0.01381154,-0.007915347,0.02575307,-0.036898524,0.010050106,0.041895274,0.57701945,2.9812605,-0.35971367,-0.6120374,0.032470595,99.7061,0.1,0.38360354,0.390152,0.14492911,0.1039673,inf,inf,inf,inf,1,1,1,1,3,1,3,2,6,1,1,1,0
670043490,670042166,31044075,49.078753500000005,2.2543773,-0.25172663,-0.8825422,0.5429638,-0.0069100135,-0.00015225113,0.25713933,-0.0232472,-0.024897384,-0.009499951,0.023991007,-0.036898524,0.010050106,0.041895274,0.8511517,-1.517593,0.5030668,-0.61186785,0.032470595,99.7061,0.1,0.3844444,0.39082003,0.14534326,0.10415071,inf,inf,inf,inf,1,1,1,1,3,1,3,2,6,1,1,1,0
670055808,670052171,31044075,49.078753500000005,2.2543773,-0.25198123,-0.8820396,0.54307115,-0.0069100135,-0.00015225113,0.25713933,-0.025911722,-0.011751729,-0.0095187,0.023816139,-0.036898524,0.010050106,0.041895274,0.049962502,0.47107953,-0.3027472,-0.6119962,0.032470595,99.7061,0.1,0.3694411,0.387331,0.13688378,0.10163749,inf,inf,inf,inf,1,1,1,1,3,1,3,2,6,1,1,1,0
670063477,670062177,31044075,49.078753500000005,2.2543773,-0.25221583,-0.88157815,0.54317415,-0.0069100135,-0.00015225113,0.25713933,-0.026736079,-0.016698804,-0.008701959,0.02447003,-0.036898524,0.010050106,0.041895274,-1.2797755,1.0839182,-0.25243902,-0.6120087,0.032470595,99.7061,0.1,0.37019762,0.38797593,0.13733849,0.101819135,inf,inf,inf,inf,1,1,1,1,3,1,3,2,6,1,1,1,0
670073572,670072183,31044075,49.078753500000005,2.2543773,-0.25243828,-0.8810901,0.54337126,-0.0069100135,-0.00015225113,0.25713933,-0.019091943,-0.022773199,-0.0034163746,0.029669948,-0.036898524,0.010050106,0.041895274,0.5260579,-3.2203867,0.5952145,-0.6118238,0.032470595,99.7061,0.1,0.3709587,0.38624924,0.13776854,0.101749845,inf,inf,inf,inf,1,1,1,1,3,1,3,2,6,1,1,1,0
670083413,670082189,31044075,49.078753500000005,2.2543773,-0.25268665,-0.88067937,0.5435592,-0.0069100135,-0.00015225113,0.25713933,-0.018164607,-0.0058282195,-0.004621271,0.028369602,-0.036898524,0.010050106,0.041895274,2.6217413,3.4703398,0.733048,-0.61176574,0.032470595,99.7061,0.1,0.37172428,0.3868944,0.13821498,0.1019328,inf,inf,inf,inf,1,1,1,1,3,1,3,2,6,1,1,1,0
670093374,670092195,31044075,49.078753500000005,2.2543773,-0.25292066,-0.8802899,0.54375213,-0.0069100135,-0.00015225113,0.25713933,-0.031832326,-0.02395037,-0.007839427,0.025046727,-0.036898524,0.010050106,0.041895274,-2.0029325,-0.24970005,-0.9562873,-0.61185074,0.032470595,99.7061,0.1,0.3724944,0.38754168,0.13865538,0.102114946,inf,inf,inf,inf,1,1,1,1,3,1,3,2,6,1,1,1,0
670103309,670102201,31044075,49.078753500000005,2.2543773,-0.25315332,-0.8798682,0.5439502,-0.0069100135,-0.00015225113,0.25713933,-0.023811376,-0.020431003,-0.0021143279,0.030658305,-0.036898524,0.010050106,0.041895274,-0.9314824,-3.14117,-0.13892704,-0.61177224,0.032470595,99.7061,0.1,0.3732691,0.38819107,0.13909145,0.102294885,inf,inf,inf,inf,1,1,1,1,3,1,3,2,6,1,1,1,0
670113545,670112207,31044075,49.078753500000005,2.2543773,-0.25341144,-0.8795134,0.54413736,-0.0069100135,-0.00015225113,0.25713933,-0.021200908,-0.007947126,-0.002889027,0.029761551,-0.036898524,0.010050106,0.041895274,1.7554455,2.9564135,0.2740205,-0.6117387,0.032470595,99.7061,0.1,0.37404838,0.38884255,0.13952665,0.10247822,inf,inf,inf,inf,1,1,1,1,3,1,3,2,6,1,1,1,0
670123290,670122213,31044075,49.078753500000005,2.2543773,-0.25363585,-0.8791536,0.5442961,-0.0069100135,-0.00015225113,0.25713933,-0.030671872,-0.02411928,-0.008909553,0.02361101,-0.036898524,0.010050106,0.041895274,-2.2291198,-1.6241124,-0.85770154,-0.61177886,0.032470595,99.7061,0.1,0.37483224,0.38949612,0.13997266,0.10266172,inf,inf,inf,inf,1,1,1,1,3,1,3,2,6,1,1,1,0
670133906,670132219,31044075,49.078753500000005,2.2543773,-0.25386947,-0.87878,0.5443826,-0.0069100135,-0.00015225113,0.25713933,-0.02128526,-0.015146841,-0.0056234174,0.026705787,-0.036898524,0.010050106,0.041895274,-0.011268784,-1.9020803,-0.07243226,-0.6117997,0.032470595,99.7061,0.1,0.3756207,0.38775018,0.14040935,0.102584355,inf,inf,inf,inf,1,1,1,1,3,1,3,2,6,1,1,1,0
670143294,670142229,31044075,49.078753500000005,2.2543773,-0.25413015,-0.87844485,0.5444456,-0.0069100135,-0.00015225113,0.25713933,-0.024523048,-0.0062538832,-0.006383111,0.025749972,-0.036898524,0.010050106,0.041895274,1.0832813,2.6181846,0.6939662,-0.6118437,0.032470595,99.7061,0.1,0.3764138,0.38840395,0.1408658,0.10276641,inf,inf,inf,inf,1,1,1,1,3,1,3,2,6,1,1,1,0
670153792,670152235,31044075,49.078753500000005,2.2543773,-0.2543642,-0.87807846,0.5444893,-0.0069100135,-0.00015225113,0.25713933,-0.029096385,-0.013536791,-0.009801993,0.02213043,-0.036898524,0.010050106,0.041895274,-1.6081564,-0.5955868,0.13069963,-0.61176956,0.032470595,99.7061,0.1,0.37721157,0.38905984,0.14131714,0.10294963,inf,inf,inf,inf,1,1,1,1,3,1,3,2,6,1,1,1,0
670163493,670162415,31044075,49.078753500000005,2.2543773,-0.25463513,-0.87770885,0.54453623,-0.0069100135,-0.00015225113,0.25713933,-0.019625062,-0.0041185287,-0.010953616,0.020773947,-0.036898524,0.010050106,0.041895274,2.0851135,0.62958634,-1.0060302,-0.61184305,0.032470595,99.7061,0.1,0.37801403,0.38971788,0.14176396,0.103131786,inf,inf,inf,inf,1,1,1,1,3,1,3,2,6,1,1,1,0
670173545,670172370,31044075,49.078753500000005,2.2543773,-0.2549107,-0.87735486,0.5445723,-0.0069100135,-0.00015225113,0.25713933,-0.0330955,-0.009382558,-0.008382887,0.023135738,-0.036898524,0.010050106,0.041895274,-0.59659547,0.15578091,-0.09820423,-0.6121547,0.032470595,99.7061,0.1,0.3788212,0.39037803,0.14220808,0.10331486,inf,inf,inf,inf,1,1,1,1,3,1,3,2,6,1,1,1,0
670184310,670182331,31044075,49.078753500000005,2.2543773,-0.25516722,-0.8769985,0.5446402,-0.0069100135,-0.00015225113,0.25713933,-0.031221207,-0.011778542,-0.008452262,0.022917202,-0.036898524,0.010050106,0.041895274,-2.1441782,-1.8990963,1.1470661,-0.61210215,0.032470595,99.7061,0.1,0.37963307,0.3886223,0.1426364,0.10323434,inf,inf,inf,inf,1,1,1,1,3,1,3,2,6,1,1,1,0
670193488,670192285,31044075,49.078753500000005,2.2543773,-0.25546673,-0.87669283,0.5447335,-0.0069100135,-0.00015225113,0.25713933,-0.021383507,-0.0032473924,-0.011237984,0.019976074,-0.036898524,0.010050106,0.041895274,2.8698208,1.9669017,-1.003319,-0.6121013,0.032470595,99.7061,0.1,0.38044956,0.3892826,0.14308988,0.10341602,inf,inf,inf,inf,1,1,1,1,3,1,3,2,6,1,1,1,0
670203423,670202261,31044075,49.078753500000005,2.2543773,-0.25575316,-0.8764149,0.5448119,-0.0069100135,-0.00015225113,0.25713933,-0.039825708,-0.01788065,-0.00949228,0.02156043,-0.036898524,0.010050106,0.041895274,-2.262002,-0.9818077,-0.49132922,-0.61229885,0.032470595,99.7061,0.1,0.38127083,0.3899451,0.1435511,0.10360195,inf,inf,inf,inf,1,1,1,1,3,1,3,2,6,1,1,1,0
670214261,670212268,31044075,49.078753500000005,2.2543773,-0.25600857,-0.8761334,0.54490596,-0.0069100135,-0.00015225113,0.25713933,-0.027800612,-0.015714068,-0.0007345473,0.030151172,-0.036898524,0.010050106,0.041895274,-1.8302482,-2.6380823,1.3529189,-0.61220634,0.032470595,99.7061,0.1,0.3820969,0.3906097,0.14397982,0.10378364,inf,inf,inf,inf,1,1,1,1,3,1,3,2,6,1,1,1,0
670224036,670222274,31044075,49.078753500000005,2.2543773,-0.2563055,-0.87592727,0.54500073,-0.0069100135,-0.00015225113,0.25713933,-0.021479927,-0.005956755,-0.0066300756,0.024083396,-0.036898524,0.010050106,0.041895274,2.997629,3.0597422,0.16565126,-0.61206305,0.032470595,99.7061,0.1,0.38292766,0.39127648,0.1444337,0.103965566,inf,inf,inf,inf,1,1,1,1,3,1,3,2,6,1,1,1,0
670234490,670232279,31044075,49.078753500000005,2.2543773,-0.25658363,-0.8757213,0.54508984,-0.0069100135,-0.00015225113,0.25713933,-0.0388678,-0.020992944,-0.008375369,0.022160755,-0.036898524,0.010050106,0.041895274,-2.3801284,-0.9888409,-1.0073802,-0.6120634,0.032470595,99.7061,0.1,0.3837632,0.39194536,0.14490753,0.104151055,inf,inf,inf,inf,1,1,1,1,3,1,3,2,6,1,1,1,0
670244164,670242285,31044075,49.078753500000005,2.2543773,-0.25687203,-0.87552166,0.5451021,-0.0069100135,-0.00015225113,0.25713933,-0.025916485,-0.018769938,-0.0034738134,0.02679538,-0.036898524,0.010050106,0.041895274,0.13843143,-2.1890938,-0.27063656,-0.61198723,0.032470595,99.7061,0.1,0.38460362,0.39016923,0.14534742,0.10406285,inf,inf,inf,inf,1,1,1,1,3,1,3,2,6,1,1,1,0
670255637,670252291,31044075,49.078753500000005,2.2543773,-0.2573754,-0.8754594,0.5450402,-0.0069100135,-0.00015225113,0.25713933,-0.029879713,-0.010645387,-0.0037521583,0.026212756,-0.036898524,0.010050106,0.041895274,2.1166463,2.408113,1.5899137,-0.6119859,0.032470595,99.7061,0.1,0.36960614,0.38670042,0.13687953,0.10155587,inf,inf,inf,inf,1,1,1,1,3,1,3,2,6,1,1,1,0
670264084,670262297,31044075,49.078753500000005,2.2543773,-0.2578187,-0.8753856,0.5449954,-0.0069100135,-0.00015225113,0.25713933,-0.03127392,-0.01755367,-0.007910036,0.02175169,-0.036898524,0.010050106,0.041895274,-0.89941037,0.29147682,-0.43928137,-0.61178625,0.032470595,99.7061,0.1,0.37036234,0.38734424,0.13733067,0.10173874,inf,inf,inf,inf,1,1,1,1,3,1,3,2,6,1,1,1,0
670273942,670272306,31044075,49.078753500000005,2.2543773,-0.25825876,-0.8753178,0.54496723,-0.0069100135,-0.00015225113,0.25713933,-0.018472679,-0.016247233,-0.00514785,0.024211552,-0.036898524,0.010050106,0.041895274,2.948379,-0.16857521,-0.80762225,-0.61166906,0.032470595,99.7061,0.1,0.37112308,0.38799015,0.1377808,0.101918735,inf,inf,inf,inf,1,1,1,1,3,1,3,2,6,1,1,1,0
670284345,670282309,31044075,49.078753500000005,2.2543773,-0.2586801,-0.8752724,0.5449266,-0.0069100135,-0.00015225113,0.25713933,-0.033261567,-0.019517688,-0.0018184409,0.027239922,-0.036898524,0.010050106,0.041895274,-0.6937124,-0.47573158,0.86718154,-0.61184335,0.032470595,99.7061,0.1,0.37188837,0.38863817,0.13821055,0.1021028,inf,inf,inf,inf,1,1,1,1,3,1,3,2,6,1,1,1,0
670294104,670292315,31044075,49.078753500000005,2.2543773,-0.2590486,-0.8752244,0.54488266,-0.0069100135,-0.00015225113,0.25713933,-0.03036754,-0.017439758,-0.006240692,0.022508472,-0.036898524,0.010050106,0.041895274,-3.2960522,-0.7209775,-0.4032407,-0.6117646,0.032470595,99.7061,0.1,0.37265822,0.38690242,0.13865043,0.10203093,inf,inf,inf,inf,1,1,1,1,3,1,3,2,6,1,1,1,0
670304479,670302321,31044075,49.078753500000005,2.2543773,-0.2594518,-0.8752105,0.5448228,-0.0069100135,-0.00015225113,0.25713933,-0.017157337,-0.018222725,-0.0073138922,0.021127837,-0.036898524,0.010050106,0.041895274,2.6200483,0.2958358,-0.6286256,-0.61172235,0.032470595,99.7061,0.1,0.37343258,0.38755065,0.13910073,0.102211185,inf,inf,inf,inf,1,1,1,1,3,1,3,2,6,1,1,1,0
670313987,670312327,31044075,49.078753500000005,2.2543773,-0.25981286,-0.8752081,0.54477173,-0.0069100135,-0.00015225113,0.25713933,-0.027421799,-0.02269681,-0.0032209584,0.024915213,-0.036898524,0.010050106,0.041895274,-0.6420006,-0.99731183,0.05513904,-0.61184263,0.032470595,99.7061,0.1,0.37421158,0.38820097,0.13953626,0.10239684,inf,inf,inf,inf,1,1,1,1,3,1,3,2,6,1,1,1,0
670324417,670322333,31044075,49.078753500000005,2.2543773,-0.26014364,-0.8752168,0.5447183,-0.0069100135,-0.00015225113,0.25713933,-0.020714719,-0.01985856,-0.0042214002,0.023611115,-0.036898524,0.010050106,0.041895274,-0.7973421,-0.6039801,0.21756631,-0.6117094,0.032470595,99.7061,0.1,0.37499514,0.38885343,0.13994783,0.10257734,inf,inf,inf,inf,1,1,1,1,3,1,3,2,6,1,1,1,0
670333935,670332339,31044075,49.078753500000005,2.2543773,-0.26050574,-0.87524134,0.54463387,-0.0069100135,-0.00015225113,0.25713933,-0.020108428,-0.016269952,-0.006011388,0.021519396,-0.036898524,0.010050106,0.041895274,1.5856951,1.1451262,0.79397285,-0.6118121,0.032470595,99.7061,0.1,0.37578323,0.389508,0.14041348,0.10275822,inf,inf,inf,inf,1,1,1,1,3,1,3,2,6,1,1,1,0
670344487,670342345,31044075,49.078753500000005,2.2543773,-0.26085642,-0.87525445,0.5446107,-0.0069100135,-0.00015225113,0.25713933,-0.03146165,-0.01997406,-0.00688558,0.020388873,-0.036898524,0.010050106,0.041895274,-2.0669134,-0.36802992,-0.47084728,-0.6117964,0.032470595,99.7061,0.1,0.376576,0.38776278,0.14086482,0.10268557,inf,inf,inf,inf,1,1,1,1,3,1,3,2,6,1,1,1,0
670354120,670352351,31044075,49.078753500000005,2.2543773,-0.26122096,-0.87526834,0.544593,-0.0069100135,-0.00015225113,0.25713933,-0.017166525,-0.017359726,-0.0041963807,0.022821844,-0.036898524,0.010050106,0.041895274,1.761417,-0.3339368,-0.11225255,-0.61160254,0.032470595,99.7061,0.1,0.37737346,0.38841754,0.14129223,0.1028662,inf,inf,inf,inf,1,1,1,1,3,1,3,2,6,1,1,1,0
670364315,670362357,31044075,49.078753500000005,2.2543773,-0.2616159,-0.87529624,0.5445557,-0.0069100135,-0.00015225113,0.25713933,-0.026847837,-0.014911738,-0.0024287987,0.024333226,-0.036898524,0.010050106,0.041895274,1.7608418,0.98229724,1.41994,-0.61169165,0.032470595,99.7061,0.1,0.37817553,0.3890744,0.14173973,0.10304881,inf,inf,inf,inf,1,1,1,1,3,1,3,2,6,1,1,1,0
670374152,670372363,31044075,49.078753500000005,2.2543773,-0.26195508,-0.8753059,0.5445447,-0.0069100135,-0.00015225113,0.25713933,-0.03656138,-0.017320346,-0.008501587,0.01800451,-0.036898524,0.010050106,0.041895274,-4.224959,-0.48006874,-1.3795615,-0.6117071,0.032470595,99.7061,0.1,0.3789823,0.3897334,0.14220186,0.103232145,inf,inf,inf,inf,1,1,1,1,3,1,3,2,6,1,1,1,0
670384456,670382369,31044075,49.078753500000005,2.2543773,-0.26232183,-0.87531304,0.5445198,-0.0069100135,-0.00015225113,0.25713933,-0.017170442,-0.01556538,-0.0022042978,0.02404626,-0.036898524,0.010050106,0.041895274,1.9357098,-0.5924868,0.31488776,-0.611509,0.032470595,99.7061,0.1,0.3797938,0.39039454,0.14263935,0.103413045,inf,inf,inf,inf,1,1,1,1,3,1,3,2,6,1,1,1,0
670394135,670392375,31044075,49.078753500000005,2.2543773,-0.262701,-0.8753293,0.5444828,-0.0069100135,-0.00015225113,0.25713933,-0.027257232,-0.009872949,-0.0030298766,0.022965597,-0.036898524,0.010050106,0.041895274,1.5160241,1.3753592,1.1027825,-0.6114217,0.032470595,99.7061,0.1,0.38061,0.39105782,0.14307563,0.10359809,inf,inf,inf,inf,1,1,1,1,3,1,3,2,6,1,1,1,0
670404565,670402381,31044075,49.078753500000005,2.2543773,-0.2630652,-0.87535566,0.5445095,-0.0069100135,-0.00015225113,0.25713933,-0.035833173,-0.018599497,-0.010324454,0.015459944,-0.036898524,0.010050106,0.041895274,-2.676332,-0.57044256,-2.084648,-0.61147237,0.032470595,99.7061,0.1,0.38143086,0.3892926,0.14354108,0.10351516,inf,inf,inf,inf,1,1,1,1,3,1,3,2,6,1,1,1,0
670414150,670412390,31044075,49.078753500000005,2.2543773,-0.26346868,-0.8753777,0.5445073,-0.0069100135,-0.00015225113,0.25713933,-0.028468879,-0.015878687,-6.85861e-05,0.025503427,-0.036898524,0.010050106,0.041895274,0.42528293,-1.0421041,1.2392973,-0.61155236,0.032470595,99.7061,0.1,0.3822566,0.389956,0.14399473,0.1036964,inf,inf,inf,inf,1,1,1,1,3,1,3,2,6,1,1,1,0
670423691,670422566,31044075,49.078753500000005,2.2543773,-0.26386067,-0.8754139,0.5445199,-0.0069100135,-0.00015225113,0.25713933,-0.030938255,-0.013034188,-0.002845979,0.022512492,-0.036898524,0.010050106,0.041895274,-0.09615933,0.27946573,0.67115533,-0.61151606,0.032470595,99.7061,0.1,0.38308707,0.39062154,0.14443022,0.10388114,inf,inf,inf,inf,1,1,1,1,3,1,3,2,6,1,1,1,0
670434091,670432527,31044075,49.078753500000005,2.2543773,-0.264224,-0.8754751,0.5445483,-0.0069100135,-0.00015225113,0.25713933,-0.025155116,-0.014694306,-0.0048788604,0.020264944,-0.036898524,0.010050106,0.041895274,0.5542238,0.9277583,-0.95453495,-0.61135167,0.032470595,99.7061,0.1,0.38392228,0.39128926,0.1448852,0.1040632,inf,inf,inf,inf,1,1,1,1,3,1,3,2,6,1,1,1,0
670443556,670442485,31044075,49.078753500000005,2.2543773,-0.26459584,-0.8755499,0.5445606,-0.0069100135,-0.00015225113,0.25713933,-0.029624114,-0.022749584,-0.0029203503,0.022007888,-0.036898524,0.010050106,0.041895274,0.31427115,-1.3117087,-0.016507728,-0.61155164,0.032470595,99.7061,0.1,0.38476232,0.3919591,0.14534399,0.10424608,inf,inf,inf,inf,1,1,1,1,3,1,3,2,6,1,1,1,0
670451549,670448717,31044075,49.078753500000005,2.2543773,-0.26463175,-0.8754073,0.5444058,-0.0069100135,-0.00015225113,0.25713933,-0.025706848,-0.014185114,-0.0061142007,0.018422078,-0.036898524,0.010050106,0.041895274,0.58462274,1.3657497,-0.5011301,-0.611287,0.032470595,99.7061,0.1,0.3697561,0.38606715,0.13687663,0.10147721,inf,inf,inf,inf,1,1,1,1,3,1,3,2,6,1,1,1,0
670459733,670458682,31044075,49.078753500000005,2.2543773,-0.264779,-0.8753097,0.5442548,-0.0069100135,-0.00015225113,0.25713933,-0.03048797,-0.022740165,-0.00249966,0.021651687,-0.036898524,0.010050106,0.041895274,-0.47111723,-2.285507,-0.29222143,-0.6115649,0.032470595,99.7061,0.1,0.370512,0.38670987,0.13730592,0.101656854,inf,inf,inf,inf,1,1,1,1,3,1,3,2,6,1,1,1,0
670470288,670468671,31044075,49.078753500000005,2.2543773,-0.26492476,-0.87524784,0.5440634,-0.0069100135,-0.00015225113,0.25713933,-0.03098432,-0.013034501,-0.007088952,0.016684268,-0.036898524,0.010050106,0.041895274,-1.1801379,0.80315804,0.44135955,-0.6115077,0.032470595,99.7061,0.1,0.37127236,0.38735464,0.13773945,0.10183984,inf,inf,inf,inf,1,1,1,1,3,1,3,2,6,1,1,1,0
670479749,670478677,31044075,49.078753500000005,2.2543773,-0.26507276,-0.87519085,0.54389864,-0.0069100135,-0.00015225113,0.25713933,-0.021683933,-0.014091405,-0.0046964986,0.018705321,-0.036898524,0.010050106,0.041895274,1.3956664,1.2268622,-0.3137652,-0.61135036,0.032470595,99.7061,0.1,0.37203723,0.38800153,0.13820173,0.10202326,inf,inf,inf,inf,1,1,1,1,3,1,3,2,6,1,1,1,0
670490226,670488682,31044075,49.078753500000005,2.2543773,-0.26523143,-0.8751175,0.5437114,-0.0069100135,-0.00015225113,0.25713933,-0.02800582,-0.01484677,-0.009297276,0.013739664,-0.036898524,0.010050106,0.041895274,0.75789404,-0.18043467,-0.49111816,-0.61159164,0.032470595,99.7061,0.1,0.3728067,0.38865054,0.13862005,0.102202475,inf,inf,inf,inf,1,1,1,1,3,1,3,2,6,1,1,1,0
670499920,670498689,31044075,49.078753500000005,2.2543773,-0.2654024,-0.8750285,0.54345083,-0.0069100135,-0.00015225113,0.25713933,-0.037379462,-0.009058131,-0.010884012,0.011744823,-0.036898524,0.010050106,0.041895274,-2.1885662,0.5125203,-0.32392544,-0.6117097,0.032470595,99.7061,0.1,0.3735807,0.38691553,0.13906513,0.10213123,inf,inf,inf,inf,1,1,1,1,3,1,3,2,6,1,1,1,0
670509888,670508695,31044075,49.078753500000005,2.2543773,-0.2656046,-0.8749306,0.5432215,-0.0069100135,-0.00015225113,0.25713933,-0.028769309,-0.011784514,-0.003962432,0.01826686,-0.036898524,0.010050106,0.041895274,0.5367713,-0.43108916,0.43714026,-0.61183685,0.032470595,99.7061,0.1,0.37435925,0.38756475,0.13953404,0.10231521,inf,inf,inf,inf,1,1,1,1,3,1,3,2,6,1,1,1,0
670519979,670518701,31044075,49.078753500000005,2.2543773,-0.2658272,-0.874838,0.542995,-0.0069100135,-0.00015225113,0.25713933,-0.033272758,-0.0094861025,-0.0061807046,0.01565736,-0.036898524,0.010050106,0.041895274,0.76058525,-0.20724507,0.50026244,-0.61193335,0.032470595,99.7061,0.1,0.37514248,0.38821608,0.13994032,0.10249626,inf,inf,inf,inf,1,1,1,1,3,1,3,2,6,1,1,1,0
670529908,670528707,31044075,49.078753500000005,2.2543773,-0.26603422,-0.87477744,0.54280007,-0.0069100135,-0.00015225113,0.25713933,-0.033148155,-0.00911899,-0.0061418214,0.0153128095,-0.036898524,0.010050106,0.041895274,-0.35421064,1.0817868,-0.8009197,-0.6118963,0.032470595,99.7061,0.1,0.37593022,0.3888695,0.1404006,0.102678746,inf,inf,inf,inf,1,1,1,1,3,1,3,2,6,1,1,1,0
670539909,670538713,31044075,49.078753500000005,2.2543773,-0.26624745,-0.8747142,0.54260993,-0.0069100135,-0.00015225113,0.25713933,-0.03125502,-0.014528209,-0.0012390427,0.019840138,-0.036898524,0.010050106,0.041895274,0.38924974,-0.8916653,0.58215624,-0.612021,0.032470595,99.7061,0.1,0.37672266,0.38952506,0.1408511,0.10286048,inf,inf,inf,inf,1,1,1,1,3,1,3,2,6,1,1,1,0
670549920,670548719,31044075,49.078753500000005,2.2543773,-0.26646787,-0.8746766,0.5424164,-0.0069100135,-0.00015225113,0.25713933,-0.035439778,-0.013710869,-0.006623279,0.01408815,-0.036898524,0.010050106,0.041895274,-0.4408214,-0.49946514,-0.29386696,-0.61201984,0.032470595,99.7061,0.1,0.37751976,0.39018273,0.1412877,0.1030441,inf,inf,inf,inf,1,1,1,1,3,1,3,2,6,1,1,1,0
670560322,670558725,31044075,49.078753500000005,2.2543773,-0.2666778,-0.8746737,0.5423094,-0.0069100135,-0.00015225113,0.25713933,-0.033941068,-0.013713907,-0.0052570254,0.015177309,-0.036898524,0.010050106,0.041895274,-0.9650593,0.61488974,-0.7021805,-0.61194694,0.032470595,99.7061,0.1,0.37832147,0.38842815,0.1416096,0.1029645,inf,inf,inf,inf,1,1,1,1,3,1,3,2,6,1,1,1,0
670569825,670568730,31044075,49.078753500000005,2.2543773,-0.26688522,-0.8746835,0.54218525,-0.0069100135,-0.00015225113,0.25713933,-0.025333341,-0.018173825,-0.0042124046,0.015948515,-0.036898524,0.010050106,0.041895274,1.5890166,-0.5620323,0.42653805,-0.6119569,0.032470595,99.7061,0.1,0.3791275,0.389086,0.14204127,0.10314844,inf,inf,inf,inf,1,1,1,1,3,1,3,2,6,1,1,1,0
670580142,670578738,31044075,49.078753500000005,2.2543773,-0.26707828,-0.8747101,0.54203016,-0.0069100135,-0.00015225113,0.25713933,-0.031745277,-0.014794062,-0.011904165,0.007986982,-0.036898524,0.010050106,0.041895274,-0.17614923,0.38976073,-0.484731,-0.6120022,0.032470595,99.7061,0.1,0.37993816,0.38974598,0.14250489,0.10333065,inf,inf,inf,inf,1,1,1,1,3,1,3,2,6,1,1,1,0
670589836,670588743,31044075,49.078753500000005,2.2543773,-0.2672543,-0.8747173,0.5418884,-0.0069100135,-0.00015225113,0.25713933,-0.030928647,-0.016288301,-0.006079021,0.013545926,-0.036898524,0.010050106,0.041895274,-1.3098617,-0.7074267,-0.04639317,-0.61217976,0.032470595,99.7061,0.1,0.3807536,0.39040807,0.14294383,0.1035123,inf,inf,inf,inf,1,1,1,1,3,1,3,2,6,1,1,1,0
670599954,670598749,31044075,49.078753500000005,2.2543773,-0.2674322,-0.8747271,0.5417677,-0.0069100135,-0.00015225113,0.25713933,-0.023430277,-0.01176117,0.0008518634,0.02021404,-0.036898524,0.010050106,0.041895274,1.0687884,0.33723626,1.7860706,-0.61205494,0.032470595,99.7061,0.1,0.3815737,0.39107233,0.14340949,0.10369618,inf,inf,inf,inf,1,1,1,1,3,1,3,2,6,1,1,1,0
670610139,670608755,31044075,49.078753500000005,2.2543773,-0.26761857,-0.8748014,0.541833,-0.0069100135,-0.00015225113,0.25713933,-0.02545687,-0.015345717,-0.005723875,0.013541032,-0.036898524,0.010050106,0.041895274,1.4165319,2.0418575,-0.5247372,-0.6119565,0.032470595,99.7061,0.1,0.38239864,0.38930783,0.14386512,0.10361427,inf,inf,inf,inf,1,1,1,1,3,1,3,2,6,1,1,1,0
670620043,670618760,31044075,49.078753500000005,2.2543773,-0.2678138,-0.874881,0.541891,-0.0069100135,-0.00015225113,0.25713933,-0.035229597,-0.027851876,-0.005947183,0.013216766,-0.036898524,0.010050106,0.041895274,-1.4550948,-2.10179,-1.1691723,-0.61235553,0.032470595,99.7061,0.1,0.38322833,0.3899722,0.14428923,0.10379637,inf,inf,inf,inf,1,1,1,1,3,1,3,2,6,1,1,1,0
670629999,670628767,31044075,49.078753500000005,2.2543773,-0.26802278,-0.8749588,0.5419392,-0.0069100135,-0.00015225113,0.25713933,-0.031163488,-0.015801905,0.0017891302,0.020848641,-0.036898524,0.010050106,0.041895274,-0.69983935,-0.06704894,1.3545929,-0.61230516,0.032470595,99.7061,0.1,0.38406274,0.39063874,0.14474842,0.10398004,inf,inf,inf,inf,1,1,1,1,3,1,3,2,6,1,1,1,0
670640332,670638772,31044075,49.078753500000005,2.2543773,-0.2682465,-0.8750466,0.54199004,-0.0069100135,-0.00015225113,0.25713933,-0.029105214,-0.015993288,-0.0049037416,0.0140480995,-0.036898524,0.010050106,0.041895274,0.81851375,1.3001508,-0.19536348,-0.6123506,0.032470595,99.7061,0.1,0.38490197,0.39130744,0.1451998,0.104163274,inf,inf,inf,inf,1,1,1,1,3,1,3,2,6,1,1,1,0
670649994,670648779,31044075,49.078753500000005,2.2543773,-0.2684477,-0.87512714,0.5420317,-0.0069100135,-0.00015225113,0.25713933,-0.029921917,-0.023473416,-0.005356213,0.013484874,-0.036898524,0.010050106,0.041895274,-0.19643053,-1.4868091,-0.8060243,-0.61254233,0.032470595,99.7061,0.1,0.385746,0.3919783,0.14563349,0.10434669,inf,inf,inf,inf,1,1,1,1,3,1,3,2,6,1,1,1,0
670661123,670658785,31044075,49.078753500000005,2.2543773,-0.268833,-0.8749992,0.5419867,-0.0069100135,-0.00015225113,0.25713933,-0.026557859,-0.014982253,-0.0041525224,0.014529477,-0.036898524,0.010050106,0.041895274,0.46346417,0.98210794,1.0620307,-0.61239713,0.032470595,99.7061,0.1,0.37060028,0.38844544,0.1371241,0.1018188,inf,inf,inf,inf,1,1,1,1,3,1,3,2,6,1,1,1,0
670670179,670668791,31044075,49.078753500000005,2.2543773,-0.2692276,-0.8748915,0.5420424,-0.0069100135,-0.00015225113,0.25713933,-0.03005244,-0.02055272,-0.005864925,0.012732158,-0.036898524,0.010050106,0.041895274,0.26503083,0.48851392,-0.53560907,-0.6124423,0.032470595,99.7061,0.1,0.3713594,0.3867107,0.13755833,0.10174813,inf,inf,inf,inf,1,1,1,1,3,1,3,2,6,1,1,1,0
670680053,670678982,31044075,49.078753500000005,2.2543773,-0.26960456,-0.8747911,0.54206175,-0.0069100135,-0.00015225113,0.25713933,-0.030930268,-0.021130083,-0.006565308,0.011942916,-0.036898524,0.010050106,0.041895274,-1.0492439,-0.5852032,0.2960024,-0.6124155,0.032470595,99.7061,0.1,0.372123,0.38735637,0.13799413,0.101929165,inf,inf,inf,inf,1,1,1,1,3,1,3,2,6,1,1,1,0
670690286,670688941,31044075,49.078753500000005,2.2543773,-0.26999235,-0.8747055,0.5420935,-0.0069100135,-0.00015225113,0.25713933,-0.026518604,-0.018527666,-0.006665611,0.011749942,-0.036898524,0.010050106,0.041895274,1.0795802,0.4482774,-0.4253437,-0.6122184,0.032470595,99.7061,0.1,0.3728912,0.38800412,0.13846251,0.102111824,inf,inf,inf,inf,1,1,1,1,3,1,3,2,6,1,1,1,0
670699920,670698897,31044075,49.078753500000005,2.2543773,-0.27039006,-0.8746285,0.5421238,-0.0069100135,-0.00015225113,0.25713933,-0.033313125,-0.020233309,-0.002280966,0.01603837,-0.036898524,0.010050106,0.041895274,-0.013047444,0.06424468,0.729692,-0.6123593,0.032470595,99.7061,0.1,0.37366393,0.38865402,0.13888286,0.102293864,inf,inf,inf,inf,1,1,1,1,3,1,3,2,6,1,1,1,0
670710221,670708862,31044075,49.078753500000005,2.2543773,-0.270762,-0.87452835,0.54215276,-0.0069100135,-0.00015225113,0.25713933,-0.033968206,-0.017371442,-0.0063250912,0.011894696,-0.036898524,0.010050106,0.041895274,-1.7714669,-0.62520504,-0.12786208,-0.61245275,0.032470595,99.7061,0.1,0.3744412,0.38930598,0.13929997,0.10247465,inf,inf,inf,inf,1,1,1,1,3,1,3,2,6,1,1,1,0
670719999,670718824,31044075,49.078753500000005,2.2543773,-0.27114287,-0.8744384,0.5419903,-0.0069100135,-0.00015225113,0.25713933,-0.025709877,-0.012285135,-0.009832522,0.008118644,-0.036898524,0.010050106,0.041895274,1.2259244,1.2765261,-0.64078027,-0.6123655,0.032470595,99.7061,0.1,0.375223,0.38756192,0.13976651,0.10240055,inf,inf,inf,inf,1,1,1,1,3,1,3,2,6,1,1,1,0
670730383,670728827,31044075,49.078753500000005,2.2543773,-0.27151346,-0.87432754,0.5418446,-0.0069100135,-0.00015225113,0.25713933,-0.03081364,-0.016937038,-0.0042701084,0.013416658,-0.036898524,0.010050106,0.041895274,0.1720744,-0.92586577,0.0024376216,-0.61260796,0.032470595,99.7061,0.1,0.37600946,0.38821408,0.14021084,0.102585085,inf,inf,inf,inf,1,1,1,1,3,1,3,2,6,1,1,1,0
670739880,670738833,31044075,49.078753500000005,2.2543773,-0.27185494,-0.8742371,0.541702,-0.0069100135,-0.00015225113,0.25713933,-0.028981872,-0.012375215,-0.005762625,0.011663989,-0.036898524,0.010050106,0.041895274,-0.8693743,0.35365635,0.071079515,-0.6126772,0.032470595,99.7061,0.1,0.3768005,0.38886836,0.14062726,0.102766104,inf,inf,inf,inf,1,1,1,1,3,1,3,2,6,1,1,1,0
670750235,670748839,31044075,49.078753500000005,2.2543773,-0.27223063,-0.8741519,0.54156786,-0.0069100135,-0.00015225113,0.25713933,-0.029701639,-0.015863165,-0.002840866,0.01432971,-0.036898524,0.010050106,0.041895274,0.61325234,-0.35534137,0.5326321,-0.61277926,0.032470595,99.7061,0.1,0.37759614,0.3895248,0.14109658,0.1029483,inf,inf,inf,inf,1,1,1,1,3,1,3,2,6,1,1,1,0
670759937,670758849,31044075,49.078753500000005,2.2543773,-0.27257013,-0.87406886,0.54146737,-0.0069100135,-0.00015225113,0.25713933,-0.03082807,-0.01374474,-0.0011978556,0.015720766,-0.036898524,0.010050106,0.041895274,-1.1313592,-0.37855372,-0.006465006,-0.61287856,0.032470595,99.7061,0.1,0.3783965,0.3901833,0.14154392,0.10313147,inf,inf,inf,inf,1,1,1,1,3,1,3,2,6,1,1,1,0
670770246,670768852,31044075,49.078753500000005,2.2543773,-0.2729254,-0.87399197,0.54131943,-0.0069100135,-0.00015225113,0.25713933,-0.022810614,-0.010482049,0.00082172564,0.017433608,-0.036898524,0.010050106,0.041895274,1.915018,0.7153247,0.42944872,-0.61263174,0.032470595,99.7061,0.1,0.37920153,0.38842955,0.1419861,0.103051506,inf,inf,inf,inf,1,1,1,1,3,1,3,2,6,1,1,1,0
670780071,670778857,31044075,49.078753500000005,2.2543773,-0.2732749,-0.87391675,0.5411637,-0.0069100135,-0.00015225113,0.25713933,-0.031008722,-0.015787052,-0.0017399532,0.014571713,-0.036898524,0.010050106,0.041895274,0.15758783,-0.7804739,0.29042497,-0.6127746,0.032470595,99.7061,0.1,0.38001123,0.38908824,0.14243954,0.1032351,inf,inf,inf,inf,1,1,1,1,3,1,3,2,6,1,1,1,0
670790104,670788868,31044075,49.078753500000005,2.2543773,-0.2735693,-0.8738586,0.540992,-0.0069100135,-0.00015225113,0.25713933,-0.030202027,-0.013855381,-0.0077354484,0.008282123,-0.036898524,0.010050106,0.041895274,-2.5646381,-0.40302852,-0.9844675,-0.6128027,0.032470595,99.7061,0.1,0.3808257,0.38974908,0.14289679,0.10341807,inf,inf,inf,inf,1,1,1,1,3,1,3,2,6,1,1,1,0
670800069,670798869,31044075,49.078753500000005,2.2543773,-0.27387002,-0.8738514,0.5407918,-0.0069100135,-0.00015225113,0.25713933,-0.0154981725,-0.016193047,-0.008398182,0.0073315604,-0.036898524,0.010050106,0.041895274,2.3061361,0.81937367,-0.53482735,-0.61236733,0.032470595,99.7061,0.1,0.38164487,0.39041203,0.14334416,0.103600144,inf,inf,inf,inf,1,1,1,1,3,1,3,2,6,1,1,1,0
670810253,670808875,31044075,49.078753500000005,2.2543773,-0.27416977,-0.8738585,0.5405787,-0.0069100135,-0.00015225113,0.25713933,-0.026973069,-0.022102509,-0.007105344,0.008342656,-0.036898524,0.010050106,0.041895274,0.40718928,-0.9176415,0.4256978,-0.61244,0.032470595,99.7061,0.1,0.3824688,0.39107716,0.14377561,0.10378414,inf,inf,inf,inf,1,1,1,1,3,1,3,2,6,1,1,1,0
670820080,670818881,31044075,49.078753500000005,2.2543773,-0.2744437,-0.87388796,0.5403914,-0.0069100135,-0.00015225113,0.25713933,-0.026943889,-0.018178118,-0.00535166,0.009820566,-0.036898524,0.010050106,0.041895274,-1.7483721,0.22396988,0.17549653,-0.61237824,0.032470595,99.7061,0.1,0.3832974,0.39174443,0.14423934,0.10396706,inf,inf,inf,inf,1,1,1,1,3,1,3,2,6,1,1,1,0
670830458,670828887,31044075,49.078753500000005,2.2543773,-0.27475184,-0.8739588,0.5401972,-0.0069100135,-0.00015225113,0.25713933,-0.02021863,-0.027158815,-0.00480289,0.010082288,-0.036898524,0.010050106,0.041895274,1.7379612,-0.67862105,0.21268,-0.612136,0.032470595,99.7061,0.1,0.38413087,0.3899704,0.14470156,0.10388015,inf,inf,inf,inf,1,1,1,1,3,1,3,2,6,1,1,1,0
670840186,670838893,31044075,49.078753500000005,2.2543773,-0.27503544,-0.87401164,0.54003924,-0.0069100135,-0.00015225113,0.25713933,-0.02759996,-0.021945577,-0.00048014076,0.014124374,-0.036898524,0.010050106,0.041895274,-0.67990005,-1.0352558,0.22378308,-0.6121521,0.032470595,99.7061,0.1,0.38496912,0.39063776,0.14513212,0.10406439,inf,inf,inf,inf,1,1,1,1,3,1,3,2,6,1,1,1,0
670851077,670848900,31044075,49.078753500000005,2.2543773,-0.2753583,-0.87387025,0.5399216,-0.0069100135,-0.00015225113,0.25713933,-0.020479845,-0.017162433,7.257346e-05,0.014419261,-0.036898524,0.010050106,0.041895274,0.29199734,2.0135386,-0.019182092,-0.6120379,0.032470595,99.7061,0.1,0.36994192,0.38715807,0.13669711,0.10155667,inf,inf,inf,inf,1,1,1,1,3,1,3,2,6,1,1,1,0
670860265,670858905,31044075,49.078753500000005,2.2543773,-0.27569556,-0.87372744,0.53980064,-0.0069100135,-0.00015225113,0.25713933,-0.023918368,-0.028544808,0.0006597571,0.014753897,-0.036898524,0.010050106,0.041895274,0.75723076,-1.5346924,0.45358285,-0.61217695,0.032470595,99.7061,0.1,0.37069622,0.3878024,0.13712512,0.101738706,inf,inf,inf,inf,1,1,1,1,3,1,3,2,6,1,1,1,0
670869996,670868911,31044075,49.078753500000005,2.2543773,-0.27599418,-0.8735941,0.53968555,-0.0069100135,-0.00015225113,0.25713933,-0.028628966,-0.022187477,-0.0034673929,0.010379398,-0.036898524,0.010050106,0.041895274,-2.4106393,-0.94572777,-0.86403686,-0.6123175,0.032470595,99.7061,0.1,0.371455,0.38844877,0.13755865,0.10192049,inf,inf,inf,inf,1,1,1,1,3,1,3,2,6,1,1,1,0
670880533,670878917,31044075,49.078753500000005,2.2543773,-0.27631754,-0.8734972,0.5395995,-0.0069100135,-0.00015225113,0.25713933,-0.016759558,-0.017116437,-0.0005732369,0.01307737,-0.036898524,0.010050106,0.041895274,1.8759605,2.1601706,0.35236144,-0.61208063,0.032470595,99.7061,0.1,0.37221825,0.38671494,0.13799122,0.10184827,inf,inf,inf,inf,1,1,1,1,3,1,3,2,6,1,1,1,0
670890021,670888923,31044075,49.078753500000005,2.2543773,-0.27667248,-0.8733867,0.5394679,-0.0069100135,-0.00015225113,0.25713933,-0.02810635,-0.025364306,-0.0063254028,0.0071319453,-0.036898524,0.010050106,0.041895274,1.1196729,-0.8638256,0.7922738,-0.6124205,0.032470595,99.7061,0.1,0.37298605,0.38736156,0.13844088,0.102031775,inf,inf,inf,inf,1,1,1,1,3,1,3,2,6,1,1,1,0
670900493,670898929,31044075,49.078753500000005,2.2543773,-0.27698898,-0.87327707,0.539343,-0.0069100135,-0.00015225113,0.25713933,-0.034755453,-0.019442832,-0.012799685,0.00046733755,-0.036898524,0.010050106,0.041895274,-3.4986491,-0.38268745,-1.9761896,-0.61278653,0.032470595,99.7061,0.1,0.37375838,0.38801026,0.13890398,0.10221363,inf,inf,inf,inf,1,1,1,1,3,1,3,2,6,1,1,1,0
670910005,670908936,31044075,49.078753500000005,2.2543773,-0.27732825,-0.8731836,0.53922385,-0.0069100135,-0.00015225113,0.25713933,-0.02043713,-0.02095265,-0.0036972477,0.009382279,-0.036898524,0.010050106,0.041895274,1.2198752,-0.022998076,-0.11033802,-0.6124438,0.032470595,99.7061,0.1,0.37453538,0.38866112,0.13934816,0.1023939,inf,inf,inf,inf,1,1,1,1,3,1,3,2,6,1,1,1,0
670920164,670918940,31044075,49.078753500000005,2.2543773,-0.27767402,-0.8730742,0.5390966,-0.0069100135,-0.00015225113,0.25713933,-0.02772008,-0.016616408,0.00068714353,0.013581854,-0.036898524,0.010050106,0.041895274,0.92745394,0.02459253,2.475046,-0.6125319,0.032470595,99.7061,0.1,0.37531695,0.38931403,0.13978626,0.10257816,inf,inf,inf,inf,1,1,1,1,3,1,3,2,6,1,1,1,0
670930323,670928948,31044075,49.078753500000005,2.2543773,-0.27803016,-0.8730151,0.53901976,-0.0069100135,-0.00015225113,0.25713933,-0.030651608,-0.015378051,-0.009459304,0.0032782394,-0.036898524,0.010050106,0.041895274,-0.20755091,2.3901718,-1.1322286,-0.61266434,0.032470595,99.7061,0.1,0.3761031,0.38757077,0.14022356,0.10250285,inf,inf,inf,inf,1,1,1,1,3,1,3,2,6,1,1,1,0
670940308,670939137,31044075,49.078753500000005,2.2543773,-0.2784233,-0.8729416,0.5389629,-0.0069100135,-0.00015225113,0.25713933,-0.038035665,-0.030425573,-0.0038942974,0.008687725,-0.036898524,0.010050106,0.041895274,-1.2923834,-3.101716,-1.30267,-0.61257845,0.032470595,99.7061,0.1,0.37689388,0.38822392,0.14066567,0.10268499,inf,inf,inf,inf,1,1,1,1,3,1,3,2,6,1,1,1,0
670950266,670949093,31044075,49.078753500000005,2.2543773,-0.27879664,-0.8728675,0.5389096,-0.0069100135,-0.00015225113,0.25713933,-0.035179455,-0.01664364,-0.0007000426,0.011728041,-0.036898524,0.010050106,0.041895274,-1.5553013,-0.81242186,0.095309675,-0.61248875,0.032470595,99.7061,0.1,0.37768924,0.38887918,0.14109509,0.10286818,inf,inf,inf,inf,1,1,1,1,3,1,3,2,6,1,1,1,0
670960698,670959054,31044075,49.078753500000005,2.2543773,-0.27920902,-0.8728402,0.5388263,-0.0069100135,-0.00015225113,0.25713933,-0.025988022,-0.010175352,-0.0003464388,0.011929359,-0.036898524,0.010050106,0.041895274,3.1680171,4.071082,1.7281843,-0.6121908,0.032470595,99.7061,0.1,0.37848926,0.38953656,0.14153893,0.10304948,inf,inf,inf,inf,1,1,1,1,3,1,3,2,6,1,1,1,0
670970165,670969013,31044075,49.078753500000005,2.2543773,-0.2796471,-0.8727724,0.5387189,-0.0069100135,-0.00015225113,0.25713933,-0.041260213,-0.023884116,-0.009906084,0.002218991,-0.036898524,0.010050106,0.041895274,0.6854148,-1.4418108,-0.13043873,-0.61236644,0.032470595,99.7061,0.1,0.37929392,0.39019606,0.14198302,0.10323348,inf,inf,inf,inf,1,1,1,1,3,1,3,2,6,1,1,1,0
670980690,670978976,31044075,49.078753500000005,2.2543773,-0.28006336,-0.8727053,0.53860915,-0.0069100135,-0.00015225113,0.25713933,-0.048617512,-0.015967404,-0.016225675,-0.004249646,-0.036898524,0.010050106,0.041895274,-3.9224098,-0.83781594,-2.9144962,-0.6126684,0.032470595,99.7061,0.1,0.38010326,0.3908577,0.1424455,0.103416495,inf,inf,inf,inf,1,1,1,1,3,1,3,2,6,1,1,1,0
670990675,670988983,31044075,49.078753500000005,2.2543773,-0.2805179,-0.87265855,0.538538,-0.0069100135,-0.00015225113,0.25713933,-0.029648714,-0.013867056,0.00081126863,0.0126859145,-0.036898524,0.010050106,0.041895274,2.6338158,1.0802922,1.8374077,-0.61233187,0.032470595,99.7061,0.1,0.38091734,0.3890946,0.14288285,0.10333313,inf,inf,inf,inf,1,1,1,1,3,1,3,2,6,1,1,1,0
671000016,670998988,31044075,49.078753500000005,2.2543773,-0.28096431,-0.8725965,0.5384802,-0.0069100135,-0.00015225113,0.25713933,-0.03910768,-0.01688171,-0.0029371264,0.00883566,-0.036898524,0.010050106,0.041895274,1.5534675,-0.5717485,1.8753192,-0.61254627,0.032470595,99.7061,0.1,0.38173613,0.38975635,0.14335264,0.10351832,inf,inf,inf,inf,1,1,1,1,3,1,3,2,6,1,1,1,0
671010639,671008994,31044075,49.078753500000005,2.2543773,-0.2813638,-0.8725773,0.53845733,-0.0069100135,-0.00015225113,0.25713933,-0.040491797,-0.014029278,-0.009348425,0.0023222056,-0.036898524,0.010050106,0.041895274,-1.7141666,1.3215797,-1.928469,-0.6128792,0.032470595,99.7061,0.1,0.38255975,0.3904203,0.14382629,0.10370193,inf,inf,inf,inf,1,1,1,1,3,1,3,2,6,1,1,1,0
671020288,671019000,31044075,49.078753500000005,2.2543773,-0.28178814,-0.8725486,0.53844553,-0.0069100135,-0.00015225113,0.25713933,-0.03347656,-0.020688137,0.002697781,0.014265897,-0.036898524,0.010050106,0.041895274,1.3174372,-1.0905247,0.50383186,-0.6127542,0.032470595,99.7061,0.1,0.38338816,0.39108637,0.14424254,0.10388309,inf,inf,inf,inf,1,1,1,1,3,1,3,2,6,1,1,1,0
671030656,671029006,31044075,49.078753500000005,2.2543773,-0.28221768,-0.87251616,0.5384205,-0.0069100135,-0.00015225113,0.25713933,-0.04081286,-0.014363991,0.00063289306,0.012098253,-0.036898524,0.010050106,0.041895274,0.1687742,-0.33272243,1.6477151,-0.61297435,0.032470595,99.7061,0.1,0.38422126,0.39175457,0.1446772,0.10406701,inf,inf,inf,inf,1,1,1,1,3,1,3,2,6,1,1,1,0
671040595,671039013,31044075,49.078753500000005,2.2543773,-0.28263852,-0.8725353,0.5386297,-0.0069100135,-0.00015225113,0.25713933,-0.038437545,-0.013633378,-0.0071649686,0.0044336636,-0.036898524,0.010050106,0.041895274,-0.12615025,2.367043,-0.99896026,-0.6132201,0.032470595,99.7061,0.10096508,0.38505906,0.38998133,0.14516687,0.10398162,inf,inf,inf,inf,1,1,1,1,3,1,3,2,6,1,1,1,0
671051555,671049018,31044075,49.078753500000005,2.2543773,-0.28304875,-0.8721805,0.5386451,-0.0069100135,-0.00015225113,0.25713933,-0.038797308,-0.027918499,-0.0064906497,0.005064851,-0.036898524,0.010050106,0.041895274,0.23835142,-3.0963545,-0.65465796,-0.6132205,0.032470595,99.7061,0.1,0.37002885,0.38652164,0.13671023,0.10148272,inf,inf,inf,inf,1,1,1,1,3,1,3,2,6,1,1,1,0
671060337,671059024,31044075,49.078753500000005,2.2543773,-0.28340828,-0.8718519,0.5386287,-0.0069100135,-0.00015225113,0.25713933,-0.03716243,-0.014114161,-0.006357206,0.0051522255,-0.036898524,0.010050106,0.041895274,-1.3105282,-0.16052012,0.5599946,-0.61335397,0.032470595,99.7061,0.1,0.37078282,0.38716486,0.13713601,0.1016631,inf,inf,inf,inf,1,1,1,1,3,1,3,2,6,1,1,1,0
671070731,671069030,31044075,49.078753500000005,2.2543773,-0.28375793,-0.8715537,0.5386005,-0.0069100135,-0.00015225113,0.25713933,-0.025785055,-0.016779345,-0.0073568043,0.0041038925,-0.036898524,0.010050106,0.041895274,2.0561485,1.0742669,0.6704798,-0.6133913,0.032470595,99.7061,0.1,0.3715413,0.38781017,0.13757256,0.101843186,inf,inf,inf,inf,1,1,1,1,3,1,3,2,6,1,1,1,0
671080315,671079036,31044075,49.078753500000005,2.2543773,-0.2840979,-0.8712491,0.53858936,-0.0069100135,-0.00015225113,0.25713933,-0.032386858,-0.01981582,-0.0054403814,0.0059689106,-0.036898524,0.010050106,0.041895274,1.0034668,-1.0456079,0.35389563,-0.61327195,0.032470595,99.7061,0.1,0.37230426,0.38845754,0.13804497,0.10202826,inf,inf,inf,inf,1,1,1,1,3,1,3,2,6,1,1,1,0
671090585,671089043,31044075,49.078753500000005,2.2543773,-0.2844157,-0.87099046,0.538593,-0.0069100135,-0.00015225113,0.25713933,-0.033868726,-0.012754888,-0.0044722566,0.0068832096,-0.036898524,0.010050106,0.041895274,-1.0364704,1.881102,0.016978687,-0.6133882,0.032470595,99.7061,0.1,0.3730718,0.38910705,0.13850735,0.10221072,inf,inf,inf,inf,1,1,1,1,3,1,3,2,6,1,1,1,0
671100697,671099049,31044075,49.078753500000005,2.2543773,-0.28473756,-0.8707527,0.53848773,-0.0069100135,-0.00015225113,0.25713933,-0.029725855,-0.02826595,0.00062075944,0.0117662735,-0.036898524,0.010050106,0.041895274,0.33091608,-1.8278513,-0.19365433,-0.61334944,0.032470595,99.7061,0.1,0.373844,0.38736418,0.13888744,0.10213456,inf,inf,inf,inf,1,1,1,1,3,1,3,2,6,1,1,1,0
671110586,671109054,31044075,49.078753500000005,2.2543773,-0.28502724,-0.87051725,0.53843135,-0.0069100135,-0.00015225113,0.25713933,-0.029608767,-0.024133516,0.009347345,0.020287473,-0.036898524,0.010050106,0.041895274,-0.32636815,-2.6675107,1.1573752,-0.6132085,0.032470595,99.7061,0.1,0.37462062,0.38801387,0.13934323,0.10231829,inf,inf,inf,inf,1,1,1,1,3,1,3,2,6,1,1,1,0
671120586,671119062,31044075,49.078753500000005,2.2543773,-0.2852813,-0.8703571,0.5383828,-0.0069100135,-0.00015225113,0.25713933,-0.021776827,-0.014549641,0.0054261284,0.01616524,-0.036898524,0.010050106,0.041895274,0.6121802,3.0727344,0.56631017,-0.61299586,0.032470595,99.7061,0.1,0.3754018,0.38866568,0.13980956,0.102500506,inf,inf,inf,inf,1,1,1,1,3,1,3,2,6,1,1,1,0
671130743,671129072,31044075,49.078753500000005,2.2543773,-0.28553322,-0.8701819,0.5383228,-0.0069100135,-0.00015225113,0.25713933,-0.022880476,-0.028879266,-0.00040390127,0.0101385405,-0.036898524,0.010050106,0.041895274,1.0680927,-1.4543345,-1.0613644,-0.6128956,0.032470595,99.7061,0.1,0.37618768,0.38931957,0.1402094,0.10268221,inf,inf,inf,inf,1,1,1,1,3,1,3,2,6,1,1,1,0
671140451,671139072,31044075,49.078753500000005,2.2543773,-0.2857613,-0.8699901,0.5382408,-0.0069100135,-0.00015225113,0.25713933,-0.029305307,-0.01992626,-0.0011058645,0.009244066,-0.036898524,0.010050106,0.041895274,-1.8100165,-1.4498955,-0.8286252,-0.6129799,0.032470595,99.7061,0.1,0.37697807,0.3899756,0.1406617,0.102865174,inf,inf,inf,inf,1,1,1,1,3,1,3,2,6,1,1,1,0
671150879,671149078,31044075,49.078753500000005,2.2543773,-0.28598008,-0.86983514,0.53813845,-0.0069100135,-0.00015225113,0.25713933,-0.01985559,-0.013808602,-0.0020689815,0.008107674,-0.036898524,0.010050106,0.041895274,0.050438315,2.3065598,0.28589928,-0.61277723,0.032470595,99.7061,0.1,0.37777308,0.38822323,0.14113548,0.10278725,inf,inf,inf,inf,1,1,1,1,3,1,3,2,6,1,1,1,0
671160470,671159085,31044075,49.078753500000005,2.2543773,-0.28620002,-0.869652,0.5380281,-0.0069100135,-0.00015225113,0.25713933,-0.021034995,-0.022532342,-0.0048890947,0.005117572,-0.036898524,0.010050106,0.041895274,0.75368875,-1.4083514,-0.31997177,-0.61271495,0.032470595,99.7061,0.1,0.37857285,0.38887942,0.1415785,0.10297088,inf,inf,inf,inf,1,1,1,1,3,1,3,2,6,1,1,1,0
671170463,671169090,31044075,49.078753500000005,2.2543773,-0.28641224,-0.86948806,0.5379272,-0.0069100135,-0.00015225113,0.25713933,-0.022720188,-0.01338358,0.00082378637,0.0106637785,-0.036898524,0.010050106,0.041895274,-0.1827594,0.67523044,0.8043125,-0.6128304,0.032470595,99.7061,0.1,0.37937728,0.38953778,0.14202495,0.10315228,inf,inf,inf,inf,1,1,1,1,3,1,3,2,6,1,1,1,0
671180648,671179097,31044075,49.078753500000005,2.2543773,-0.286647,-0.86937505,0.53785354,-0.0069100135,-0.00015225113,0.25713933,-0.020129569,-0.020360818,0.00222937,0.011905869,-0.036898524,0.010050106,0.041895274,1.4093227,1.0974138,0.7859549,-0.6127598,0.032470595,99.7061,0.1,0.3801864,0.39019823,0.14247574,0.103333525,inf,inf,inf,inf,1,1,1,1,3,1,3,2,6,1,1,1,0
671190342,671189102,31044075,49.078753500000005,2.2543773,-0.28686824,-0.86924624,0.5378133,-0.0069100135,-0.00015225113,0.25713933,-0.026150152,-0.022569777,0.000859942,0.010376022,-0.036898524,0.010050106,0.041895274,-0.5655547,-1.392375,-0.7691888,-0.6127604,0.032470595,99.7061,0.1,0.38100028,0.3908608,0.14291674,0.10351745,inf,inf,inf,inf,1,1,1,1,3,1,3,2,6,1,1,1,0
671201137,671199292,31044075,49.078753500000005,2.2543773,-0.28708017,-0.86919004,0.53772205,-0.0069100135,-0.00015225113,0.25713933,-0.021934424,-0.017998884,0.0034763038,0.0127866175,-0.036898524,0.010050106,0.041895274,-0.44981623,2.0732229,0.06370305,-0.6127586,0.032470595,99.7061,0.1,0.38181883,0.38909858,0.14336224,0.10343527,inf,inf,inf,inf,1,1,1,1,3,1,3,2,6,1,1,1,0
671210899,671209247,31044075,49.078753500000005,2.2543773,-0.2872903,-0.86912894,0.5376298,-0.0069100135,-0.00015225113,0.25713933,-0.02053357,-0.030312639,-4.2233496e-05,0.009067379,-0.036898524,0.010050106,0.041895274,0.57210666,-1.5941463,-0.63466203,-0.61265635,0.032470595,99.7061,0.1,0.38264212,0.3897613,0.14379238,0.10361871,inf,inf,inf,inf,1,1,1,1,3,1,3,2,6,1,1,1,0
671221025,671219207,31044075,49.078753500000005,2.2543773,-0.28752252,-0.8690814,0.5375279,-0.0069100135,-0.00015225113,0.25713933,-0.026342323,-0.023807857,0.00012769178,0.009041662,-0.036898524,0.010050106,0.041895274,-0.13290858,-0.8880356,-0.42930442,-0.612549,0.032470595,99.7061,0.1,0.3834701,0.39042622,0.14421013,0.103801385,inf,inf,inf,inf,1,1,1,1,3,1,3,2,6,1,1,1,0
671230735,671229164,31044075,49.078753500000005,2.2543773,-0.28777635,-0.86906445,0.5373965,-0.0069100135,-0.00015225113,0.25713933,-0.031376656,-0.01947864,-0.0010338703,0.0076892585,-0.036898524,0.010050106,0.041895274,-1.3418989,1.978818,0.57218045,-0.61268234,0.032470595,99.7061,0.1,0.38430274,0.39109322,0.14467582,0.10398266,inf,inf,inf,inf,1,1,1,1,3,1,3,2,6,1,1,1,0
671240969,671239130,31044075,49.078753500000005,2.2543773,-0.28804615,-0.8690097,0.53726614,-0.0069100135,-0.00015225113,0.25713933,-0.027936045,-0.025631085,-0.0066851885,0.0018518541,-0.036898524,0.010050106,0.041895274,-0.10389501,-1.3812153,-1.2088673,-0.6125196,0.032470595,99.7061,0.1,0.3851402,0.39176238,0.14514889,0.10416701,inf,inf,inf,inf,1,1,1,1,3,1,3,2,6,1,1,1,0
