timestamp,timestamp_sample,ref_timestamp,ref_lat,ref_lon,x,y,z,delta_xy[0],delta_xy[1],delta_z,vx,vy,vz,z_deriv,delta_vxy[0],delta_vxy[1],delta_vz,ax,ay,az,heading,delta_heading,ref_alt,dist_bottom,eph,epv,evh,evv,vxy_max,vz_max,hagl_min,hagl_max,xy_valid,z_valid,v_xy_valid,v_z_valid,xy_reset_counter,z_reset_counter,vxy_reset_counter,vz_reset_counter,heading_reset_counter,xy_global,z_global,dist_bottom_valid,dist_bottom_sensor_bitfield
479381880,479380252,31044075,49.078753500000005,2.2543773,-0.9139118,-2.1268375,2.2050047,-0.0069100135,-0.00015225113,0.25713933,-0.015404923,-0.0054807398,0.023080725,0.02823068,-0.036898524,0.010050106,0.041895274,-0.0005909565,0.01636378,0.012847392,-0.5317093,0.01776818,99.7061,0.1,0.3598035,0.39354613,0.14499676,0.1060285,inf,inf,inf,inf,1,1,1,1,3,1,3,2,4,1,1,1,0
479391494,479390258,31044075,49.078753500000005,2.2543773,-0.91442895,-2.1273406,2.2052383,-0.0069100135,-0.00015225113,0.25713933,-0.015443137,-0.005572021,0.02314408,0.028232384,-0.036898524,0.010050106,0.041895274,0.009398215,-0.0072742924,-0.0016375665,-0.531689,0.01776818,99.7061,0.1,0.36068192,0.39423177,0.14544933,0.10621751,inf,inf,inf,inf,1,1,1,1,3,1,3,2,4,1,1,1,0
479401573,479400265,31044075,49.078753500000005,2.2543773,-0.9149332,-2.1278274,2.2053754,-0.0069100135,-0.00015225113,0.25713933,-0.015574039,-0.00585634,0.023199053,0.028127914,-0.036898524,0.010050106,0.041895274,0.0030427212,-0.037456043,-0.00446109,-0.5316964,0.01776818,99.7061,0.1,0.3615654,0.39242944,0.14590284,0.106125616,inf,inf,inf,inf,1,1,1,1,3,1,3,2,4,1,1,1,0
479411911,479410272,31044075,49.078753500000005,2.2543773,-0.91542596,-2.1282992,2.205516,-0.0069100135,-0.00015225113,0.25713933,-0.015809549,-0.0059907227,0.023234341,0.028008647,-0.036898524,0.010050106,0.041895274,-0.0046092854,-0.007866325,0.0038167113,-0.5317254,0.01776818,99.7061,0.1,0.362454,0.3931152,0.14635733,0.10631483,inf,inf,inf,inf,1,1,1,1,3,1,3,2,4,1,1,1,0
479421441,479420280,31044075,49.078753500000005,2.2543773,-0.91590565,-2.128756,2.2056608,-0.0069100135,-0.00015225113,0.25713933,-0.015321461,-0.0060482305,0.023469947,0.028094422,-0.036898524,0.010050106,0.041895274,0.113915406,0.016165698,0.044357784,-0.5317712,0.01776818,99.7061,0.1,0.36334762,0.39380318,0.14681226,0.10650408,inf,inf,inf,inf,1,1,1,1,3,1,3,2,4,1,1,1,0
479431912,479430287,31044075,49.078753500000005,2.2543773,-0.9163781,-2.129203,2.2058086,-0.0069100135,-0.00015225113,0.25713933,-0.01544349,-0.006374324,0.023593197,0.028072413,-0.036898524,0.010050106,0.041895274,0.34163266,0.17467651,0.087248914,-0.53188425,0.01776818,99.7061,0.1,0.36424628,0.3944934,0.14726882,0.10669342,inf,inf,inf,inf,1,1,1,1,3,1,3,2,4,1,1,1,0
479442476,479440295,31044075,49.078753500000005,2.2543773,-0.91660756,-2.1297295,2.2061167,-0.0069100135,-0.00015225113,0.25713933,-0.015718957,-0.0068952427,0.023293948,0.027795106,-0.036898524,0.010050106,0.041895274,0.07490785,-0.073263705,-0.018370626,-0.5320662,0.01776818,99.7061,0.1,0.34819493,0.3907134,0.13823314,0.10398961,inf,inf,inf,inf,1,1,1,1,3,1,3,2,4,1,1,1,0
479452188,479450306,31044075,49.078753500000005,2.2543773,-0.91682816,-2.1302404,2.2063406,-0.0069100135,-0.00015225113,0.25713933,-0.01625595,-0.0064783767,0.023412852,0.027846865,-0.036898524,0.010050106,0.041895274,-0.288136,0.09741117,-0.1152824,-0.5321855,0.01776818,99.7061,0.1,0.3490009,0.3889543,0.13872103,0.10391347,inf,inf,inf,inf,1,1,1,1,3,1,3,2,4,1,1,1,0
479461471,479460310,31044075,49.078753500000005,2.2543773,-0.91704446,-2.1307337,2.2065656,-0.0069100135,-0.00015225113,0.25713933,-0.015281602,-0.0073979953,0.024127156,0.028495064,-0.036898524,0.010050106,0.041895274,-0.011703388,-0.089569144,0.06988168,-0.53221726,0.01776818,99.7061,0.1,0.34981182,0.3896175,0.13916495,0.10410111,inf,inf,inf,inf,1,1,1,1,3,1,3,2,4,1,1,1,0
479471879,479470317,31044075,49.078753500000005,2.2543773,-0.91725546,-2.131201,2.2067912,-0.0069100135,-0.00015225113,0.25713933,-0.01567629,-0.008368818,0.024384528,0.028687377,-0.036898524,0.010050106,0.041895274,-0.045448843,-0.77204835,0.24142444,-0.5320569,0.01776818,99.7061,0.1,0.35062757,0.3902829,0.13960981,0.104288846,inf,inf,inf,inf,1,1,1,1,3,1,3,2,4,1,1,1,0
479481474,479480327,31044075,49.078753500000005,2.2543773,-0.9174514,-2.131648,2.2070172,-0.0069100135,-0.00015225113,0.25713933,-0.01490155,-0.004711069,0.023825957,0.028064763,-0.036898524,0.010050106,0.041895274,-0.25931334,0.111169204,0.10385164,-0.5318425,0.01776818,99.7061,0.1,0.35144812,0.39095047,0.14005533,0.1044767,inf,inf,inf,inf,1,1,1,1,3,1,3,2,4,1,1,1,0
479491903,479490333,31044075,49.078753500000005,2.2543773,-0.9176519,-2.1320732,2.207243,-0.0069100135,-0.00015225113,0.25713933,-0.013389281,-0.004878587,0.024414277,0.028590057,-0.036898524,0.010050106,0.041895274,0.64939183,0.23510638,0.2508389,-0.53173196,0.01776818,99.7061,0.1,0.35227346,0.39162022,0.14050117,0.10466464,inf,inf,inf,inf,1,1,1,1,3,1,3,2,4,1,1,1,0
479501659,479500340,31044075,49.078753500000005,2.2543773,-0.9178484,-2.132484,2.2074192,-0.0069100135,-0.00015225113,0.25713933,-0.015131752,-0.004673402,0.023376072,0.02743454,-0.036898524,0.010050106,0.041895274,0.30793253,0.3634298,-0.17871222,-0.5318241,0.01776818,99.7061,0.1,0.3531037,0.389851,0.14094803,0.10458412,inf,inf,inf,inf,1,1,1,1,3,1,3,2,4,1,1,1,0
479512071,479510348,31044075,49.078753500000005,2.2543773,-0.9180484,-2.1328845,2.2075896,-0.0069100135,-0.00015225113,0.25713933,-0.017914208,-0.0050630686,0.02198425,0.025928818,-0.036898524,0.010050106,0.041895274,-0.3759567,0.49042147,-0.36113757,-0.53214717,0.01776818,99.7061,0.1,0.3539388,0.39052096,0.1413956,0.104772314,inf,inf,inf,inf,1,1,1,1,3,1,3,2,4,1,1,1,0
479521452,479520355,31044075,49.078753500000005,2.2543773,-0.9182509,-2.133264,2.2077615,-0.0069100135,-0.00015225113,0.25713933,-0.01637729,-0.0071429196,0.023361603,0.027195573,-0.036898524,0.010050106,0.041895274,0.091849476,-0.398569,-0.06739513,-0.5324657,0.01776818,99.7061,0.1,0.35477877,0.39119312,0.14184396,0.10496058,inf,inf,inf,inf,1,1,1,1,3,1,3,2,4,1,1,1,0
479532510,479530571,31044075,49.078753500000005,2.2543773,-0.9184534,-2.1336176,2.2079399,-0.0069100135,-0.00015225113,0.25713933,-0.01989524,-0.004283714,0.021257037,0.024983633,-0.036898524,0.010050106,0.041895274,-0.7487211,-0.21450198,-0.5119292,-0.532878,0.01776818,99.7061,0.1,0.35562366,0.39186746,0.14229232,0.10514893,inf,inf,inf,inf,1,1,1,1,3,1,3,2,4,1,1,1,0
479541579,479540528,31044075,49.078753500000005,2.2543773,-0.918644,-2.1339567,2.2081172,-0.0069100135,-0.00015225113,0.25713933,-0.015732149,-0.0042465297,0.022758393,0.026380705,-0.036898524,0.010050106,0.041895274,0.013950013,0.12375482,-0.40264732,-0.5328398,0.01776818,99.7061,0.1,0.35647345,0.39254403,0.14274177,0.10533738,inf,inf,inf,inf,1,1,1,1,3,1,3,2,4,1,1,1,0
479551894,479550487,31044075,49.078753500000005,2.2543773,-0.9188353,-2.1342704,2.2082868,-0.0069100135,-0.00015225113,0.25713933,-0.0160064,-0.0025186527,0.022354871,0.025875907,-0.036898524,0.010050106,0.041895274,0.55370253,0.19013706,0.015657308,-0.53244585,0.01776818,99.7061,0.1,0.35732815,0.39322278,0.14319377,0.10552595,inf,inf,inf,inf,1,1,1,1,3,1,3,2,4,1,1,1,0
479561759,479560444,31044075,49.078753500000005,2.2543773,-0.9190178,-2.1345587,2.208396,-0.0069100135,-0.00015225113,0.25713933,-0.018336901,-0.0024651822,0.022091871,0.02544934,-0.036898524,0.010050106,0.041895274,-0.37784025,-0.114128545,-0.19249961,-0.53189963,0.01776818,99.7061,0.1,0.3581878,0.39143258,0.14364497,0.10543868,inf,inf,inf,inf,1,1,1,1,3,1,3,2,4,1,1,1,0
479571474,479570409,31044075,49.078753500000005,2.2543773,-0.91919935,-2.134836,2.208512,-0.0069100135,-0.00015225113,0.25713933,-0.017911412,-0.004380004,0.022749376,0.02594897,-0.036898524,0.010050106,0.041895274,-0.37039053,-0.6068279,-0.123859696,-0.5313519,0.01776818,99.7061,0.1,0.35905242,0.39211148,0.14409444,0.105627514,inf,inf,inf,inf,1,1,1,1,3,1,3,2,4,1,1,1,0
479581948,479580402,31044075,49.078753500000005,2.2543773,-0.91937613,-2.1351197,2.2086313,-0.0069100135,-0.00015225113,0.25713933,-0.016592152,-0.004147992,0.02202699,0.025074216,-0.036898524,0.010050106,0.041895274,0.014011849,0.0028050567,-0.2065535,-0.5309526,0.01776818,99.7061,0.1,0.35992202,0.3927926,0.14454637,0.105816424,inf,inf,inf,inf,1,1,1,1,3,1,3,2,4,1,1,1,0
479591513,479590413,31044075,49.078753500000005,2.2543773,-0.91954416,-2.135399,2.208753,-0.0069100135,-0.00015225113,0.25713933,-0.015507776,-0.0046451986,0.021991504,0.02489168,-0.036898524,0.010050106,0.041895274,0.24110234,0.17646435,-0.23193912,-0.5307487,0.01776818,99.7061,0.1,0.36079657,0.39347595,0.14500219,0.10600486,inf,inf,inf,inf,1,1,1,1,3,1,3,2,4,1,1,1,0
479601824,479600417,31044075,49.078753500000005,2.2543773,-0.91970694,-2.135662,2.2088773,-0.0069100135,-0.00015225113,0.25713933,-0.016400414,-0.0045706225,0.022158815,0.024917131,-0.036898524,0.010050106,0.041895274,0.049069386,-0.026132343,-0.12961788,-0.53076726,0.01776818,99.7061,0.1,0.3616762,0.3941615,0.14545429,0.10619385,inf,inf,inf,inf,1,1,1,1,3,1,3,2,4,1,1,1,0
479611713,479610426,31044075,49.078753500000005,2.2543773,-0.91986436,-2.1359153,2.2089624,-0.0069100135,-0.00015225113,0.25713933,-0.016102593,-0.004857207,0.022050023,0.024626449,-0.036898524,0.010050106,0.041895274,-0.012834957,-0.035817947,-0.21482128,-0.5310659,0.01776818,99.7061,0.1,0.36256078,0.3923604,0.14591314,0.10610193,inf,inf,inf,inf,1,1,1,1,3,1,3,2,4,1,1,1,0
479621977,479620430,31044075,49.078753500000005,2.2543773,-0.9200053,-2.136169,2.209062,-0.0069100135,-0.00015225113,0.25713933,-0.014491443,-0.006763207,0.023211118,0.025612455,-0.036898524,0.010050106,0.041895274,-0.022880007,-0.15393086,-0.28617564,-0.531546,0.01776818,99.7061,0.1,0.36345044,0.39304608,0.14637406,0.106291115,inf,inf,inf,inf,1,1,1,1,3,1,3,2,4,1,1,1,0
479631622,479630438,31044075,49.078753500000005,2.2543773,-0.92012453,-2.1364064,2.2091641,-0.0069100135,-0.00015225113,0.25713933,-0.013154725,-0.0040321304,0.021828134,0.02406094,-0.036898524,0.010050106,0.041895274,-0.2067771,0.22100587,-0.50146955,-0.5320097,0.01776818,99.7061,0.1,0.36434516,0.393734,0.1468253,0.10648062,inf,inf,inf,inf,1,1,1,1,3,1,3,2,4,1,1,1,0
479644797,479640447,31044075,49.078753500000005,2.2543773,-0.92008257,-2.1366084,2.2094722,-0.0069100135,-0.00015225113,0.25713933,-0.01407593,-0.004282819,0.021885207,0.024175154,-0.036898524,0.010050106,0.041895274,-0.17382272,-0.18280597,-0.24642256,-0.53241724,0.01776818,99.7061,0.1,0.3483545,0.38998935,0.13787916,0.103793174,inf,inf,inf,inf,1,1,1,1,3,1,3,2,4,1,1,1,0
479651600,479650453,31044075,49.078753500000005,2.2543773,-0.92004275,-2.1368034,2.2097936,-0.0069100135,-0.00015225113,0.25713933,-0.012754988,-0.005144369,0.02584034,0.028183958,-0.036898524,0.010050106,0.041895274,0.11475001,-0.30131698,0.28003776,-0.5326816,0.01776818,99.7061,0.1,0.34915736,0.3906524,0.13831463,0.10398064,inf,inf,inf,inf,1,1,1,1,3,1,3,2,4,1,1,1,0
479662213,479660461,31044075,49.078753500000005,2.2543773,-0.91997033,-2.1369874,2.2101443,-0.0069100135,-0.00015225113,0.25713933,-0.008632571,-0.0021228152,0.022132374,0.024553888,-0.036898524,0.010050106,0.041895274,0.12629999,0.48011443,-0.6114111,-0.5326958,0.01776818,99.7061,0.1,0.34996492,0.38889447,0.13875762,0.10390432,inf,inf,inf,inf,1,1,1,1,3,1,3,2,4,1,1,1,0
479671583,479670468,31044075,49.078753500000005,2.2543773,-0.9199008,-2.1371372,2.2104712,-0.0069100135,-0.00015225113,0.25713933,-0.01155021,-0.0029237624,0.023393348,0.025888316,-0.036898524,0.010050106,0.041895274,-0.30506843,-0.43250397,0.20401141,-0.53259975,0.01776818,99.7061,0.1,0.35077727,0.38955775,0.13920066,0.10409196,inf,inf,inf,inf,1,1,1,1,3,1,3,2,4,1,1,1,0
479682217,479680476,31044075,49.078753500000005,2.2543773,-0.91984224,-2.1372936,2.2108226,-0.0069100135,-0.00015225113,0.25713933,-0.011330604,-0.004146682,0.028310658,0.030874815,-0.036898524,0.010050106,0.041895274,-0.18098488,-0.24169219,0.6921711,-0.5323168,0.01776818,99.7061,0.1,0.3515944,0.39022318,0.1396414,0.10427994,inf,inf,inf,inf,1,1,1,1,3,1,3,2,4,1,1,1,0
479691651,479690486,31044075,49.078753500000005,2.2543773,-0.9197629,-2.1374338,2.2111626,-0.0069100135,-0.00015225113,0.25713933,-0.007993074,-0.001034545,0.022704847,0.025334066,-0.036898524,0.010050106,0.041895274,-0.06594253,0.28246436,-0.15497789,-0.5320022,0.01776818,99.7061,0.1,0.3524163,0.3908908,0.1400889,0.10446776,inf,inf,inf,inf,1,1,1,1,3,1,3,2,4,1,1,1,0
479702256,479700491,31044075,49.078753500000005,2.2543773,-0.9196816,-2.137557,2.2114823,-0.0069100135,-0.00015225113,0.25713933,-0.006088205,-0.00071078364,0.024812452,0.027502779,-0.036898524,0.010050106,0.041895274,0.70129806,0.37640038,0.596251,-0.531726,0.01776818,99.7061,0.1,0.35324305,0.39156058,0.14053524,0.10465574,inf,inf,inf,inf,1,1,1,1,3,1,3,2,4,1,1,1,0
479711627,479710499,31044075,49.078753500000005,2.2543773,-0.9195914,-2.1376846,2.2118394,-0.0069100135,-0.00015225113,0.25713933,-0.0069597582,-0.0010334025,0.023111898,0.025859505,-0.036898524,0.010050106,0.041895274,0.21154761,0.8237796,-1.3199204,-0.53139955,0.01776818,99.7061,0.1,0.35407466,0.39223257,0.14098126,0.104843736,inf,inf,inf,inf,1,1,1,1,3,1,3,2,4,1,1,1,0
479722156,479720506,31044075,49.078753500000005,2.2543773,-0.9195038,-2.1377897,2.2121289,-0.0069100135,-0.00015225113,0.25713933,-0.007636372,-0.0032419467,0.02023723,0.023022253,-0.036898524,0.010050106,0.041895274,-0.04065728,-0.43219247,-0.3911579,-0.5313219,0.01776818,99.7061,0.1,0.3549111,0.39045417,0.14142917,0.104761146,inf,inf,inf,inf,1,1,1,1,3,1,3,2,4,1,1,1,0
479731730,479730513,31044075,49.078753500000005,2.2543773,-0.9194018,-2.1379085,2.2124543,-0.0069100135,-0.00015225113,0.25713933,-0.004370255,-0.0046343557,0.030828929,0.03364855,-0.036898524,0.010050106,0.041895274,0.22983743,-0.20745285,0.9499756,-0.5311796,0.01776818,99.7061,0.1,0.35575238,0.39112633,0.141873,0.10494961,inf,inf,inf,inf,1,1,1,1,3,1,3,2,4,1,1,1,0
479741614,479740521,31044075,49.078753500000005,2.2543773,-0.9193212,-2.1380336,2.2127748,-0.0069100135,-0.00015225113,0.25713933,-0.008762928,-0.003605531,0.022289257,0.025140738,-0.036898524,0.010050106,0.041895274,0.018233065,0.51616377,-0.43725935,-0.5311936,0.01776818,99.7061,0.1,0.3565986,0.3918007,0.14232703,0.10513759,inf,inf,inf,inf,1,1,1,1,3,1,3,2,4,1,1,1,0
479751936,479750529,31044075,49.078753500000005,2.2543773,-0.9192199,-2.138153,2.213095,-0.0069100135,-0.00015225113,0.25713933,-0.0071440707,-0.007166561,0.028015634,0.03089635,-0.036898524,0.010050106,0.041895274,-0.8186593,-0.37122434,0.35720924,-0.5312732,0.01776818,99.7061,0.1,0.35744968,0.39247724,0.14277677,0.10532601,inf,inf,inf,inf,1,1,1,1,3,1,3,2,4,1,1,1,0
479761619,479760536,31044075,49.078753500000005,2.2543773,-0.919111,-2.1382616,2.213433,-0.0069100135,-0.00015225113,0.25713933,-0.0067958715,-0.0022067428,0.023783842,0.026691249,-0.036898524,0.010050106,0.041895274,-0.9149164,0.59113646,-1.1351777,-0.531432,0.01776818,99.7061,0.1,0.35830566,0.393156,0.14321274,0.10551461,inf,inf,inf,inf,1,1,1,1,3,1,3,2,4,1,1,1,0
479772255,479770544,31044075,49.078753500000005,2.2543773,-0.91899693,-2.1383705,2.2136087,-0.0069100135,-0.00015225113,0.25713933,-0.00077597616,-0.0040785316,0.026571505,0.029369408,-0.036898524,0.010050106,0.041895274,0.6528461,0.8195492,0.4096879,-0.5315515,0.01776818,99.7061,0.1,0.35916656,0.39136705,0.14367795,0.10542708,inf,inf,inf,inf,1,1,1,1,3,1,3,2,4,1,1,1,0
479781655,479780553,31044075,49.078753500000005,2.2543773,-0.9188702,-2.1384742,2.2138014,-0.0069100135,-0.00015225113,0.25713933,-0.0046142396,0.00050382613,0.022836737,0.025528679,-0.036898524,0.010050106,0.041895274,-0.4565454,2.0405965,-0.9929341,-0.53178763,0.01776818,99.7061,0.1,0.36003244,0.39204597,0.14412521,0.10561585,inf,inf,inf,inf,1,1,1,1,3,1,3,2,4,1,1,1,0
479793226,479790763,31044075,49.078753500000005,2.2543773,-0.918743,-2.1385663,2.2139947,-0.0069100135,-0.00015225113,0.25713933,0.002720611,-0.0014967275,0.026600454,0.029189883,-0.036898524,0.010050106,0.041895274,1.2224065,1.5783265,0.056234416,-0.5318337,0.01776818,99.7061,0.1,0.36090323,0.39272708,0.14455962,0.105804764,inf,inf,inf,inf,1,1,1,1,3,1,3,2,4,1,1,1,0
479801788,479800720,31044075,49.078753500000005,2.2543773,-0.91860896,-2.1386578,2.2141814,-0.0069100135,-0.00015225113,0.25713933,-0.0022584908,0.00072175794,0.020528458,0.023018688,-0.036898524,0.010050106,0.041895274,0.17924565,2.3918762,-1.2652787,-0.531963,0.01776818,99.7061,0.1,0.36177897,0.3934104,0.14503422,0.10599325,inf,inf,inf,inf,1,1,1,1,3,1,3,2,4,1,1,1,0
479813237,479810683,31044075,49.078753500000005,2.2543773,-0.918458,-2.138736,2.2143857,-0.0069100135,-0.00015225113,0.25713933,0.002775155,-0.0017898887,0.024752645,0.027146904,-0.036898524,0.010050106,0.041895274,0.47975555,1.5573378,-1.1901991,-0.5319321,0.01776818,99.7061,0.1,0.36265978,0.394096,0.14548042,0.10618214,inf,inf,inf,inf,1,1,1,1,3,1,3,2,4,1,1,1,0
479821840,479820644,31044075,49.078753500000005,2.2543773,-0.9183342,-2.138808,2.2144673,-0.0069100135,-0.00015225113,0.25713933,-0.004971224,-0.0014784166,0.020158157,0.02233701,-0.036898524,0.010050106,0.041895274,-0.29575008,1.4024036,-2.0407624,-0.53198254,0.01776818,99.7061,0.1,0.36354557,0.3922961,0.14594167,0.10609032,inf,inf,inf,inf,1,1,1,1,3,1,3,2,4,1,1,1,0
479833052,479830621,31044075,49.078753500000005,2.2543773,-0.9181736,-2.138867,2.2145503,-0.0069100135,-0.00015225113,0.25713933,0.0024123124,-0.0038812214,0.020258054,0.022229932,-0.036898524,0.010050106,0.041895274,-0.38117558,0.394996,-2.2611036,-0.53178036,0.01776818,99.7061,0.1,0.3644364,0.3929818,0.14640805,0.10627971,inf,inf,inf,inf,1,1,1,1,3,1,3,2,4,1,1,1,0
479841734,479840599,31044075,49.078753500000005,2.2543773,-0.91804624,-2.1389189,2.214617,-0.0069100135,-0.00015225113,0.25713933,-0.0042184363,-0.007341976,0.02262856,0.024401588,-0.036898524,0.010050106,0.041895274,-0.35954988,-0.977494,-0.6408551,-0.5317543,0.01776818,99.7061,0.1,0.3653323,0.39366972,0.14682432,0.10646908,inf,inf,inf,inf,1,1,1,1,3,1,3,2,4,1,1,1,0
479855174,479850604,31044075,49.078753500000005,2.2543773,-0.91838896,-2.1395183,2.2148714,-0.0069100135,-0.00015225113,0.25713933,-0.0072320644,-0.012983341,0.022830179,0.024569543,-0.036898524,0.010050106,0.041895274,-2.8685458,-2.530343,-1.5085961,-0.5314927,0.01776818,99.7061,0.1,0.34953046,0.39011648,0.1382144,0.10390736,inf,inf,inf,inf,1,1,1,1,3,1,3,2,4,1,1,1,0
479861685,479860612,31044075,49.078753500000005,2.2543773,-0.9187439,-2.140099,2.2151172,-0.0069100135,-0.00015225113,0.25713933,0.0041209995,-0.00676482,0.029656736,0.031363126,-0.036898524,0.010050106,0.041895274,1.2059076,-1.0882455,0.9204854,-0.53114504,0.01776818,99.7061,0.1,0.35033742,0.3907808,0.13863689,0.10409526,inf,inf,inf,inf,1,1,1,1,3,1,3,2,4,1,1,1,0
479873653,479870622,31044075,49.078753500000005,2.2543773,-0.9190558,-2.1406877,2.2153602,-0.0069100135,-0.00015225113,0.25713933,-0.003122147,-0.0068805185,0.025427207,0.027101317,-0.036898524,0.010050106,0.041895274,-1.084902,0.6415528,0.45094806,-0.5309409,0.01776818,99.7061,0.1,0.35114905,0.39144728,0.1390958,0.10428219,inf,inf,inf,inf,1,1,1,1,3,1,3,2,4,1,1,1,0
479882924,479880629,31044075,49.078753500000005,2.2543773,-0.9193522,-2.1412482,2.2155821,-0.0069100135,-0.00015225113,0.25713933,0.008338363,-0.0042884788,0.029564867,0.031158686,-0.036898524,0.010050106,0.041895274,1.4891335,1.1236187,0.22163214,-0.5306136,0.01776818,99.7061,0.1,0.35196552,0.38967806,0.13953029,0.1042034,inf,inf,inf,inf,1,1,1,1,3,1,3,2,4,1,1,1,0
479893126,479890639,31044075,49.078753500000005,2.2543773,-0.919653,-2.1418118,2.2157993,-0.0069100135,-0.00015225113,0.25713933,-0.0019871518,-0.0075178687,0.026918635,0.028434938,-0.036898524,0.010050106,0.041895274,0.17804146,1.3776069,0.09713466,-0.5305341,0.01776818,99.7061,0.1,0.35278672,0.39034474,0.13998878,0.10439056,inf,inf,inf,inf,1,1,1,1,3,1,3,2,4,1,1,1,0
479902717,479900644,31044075,49.078753500000005,2.2543773,-0.91990334,-2.142331,2.216028,-0.0069100135,-0.00015225113,0.25713933,-0.0024875295,-0.017068377,0.023722993,0.025164418,-0.036898524,0.010050106,0.041895274,-2.557125,-2.7788565,-1.5160092,-0.53043026,0.01776818,99.7061,0.1,0.3536128,0.3910136,0.14042836,0.10457867,inf,inf,inf,inf,1,1,1,1,3,1,3,2,4,1,1,1,0
479912631,479910650,31044075,49.078753500000005,2.2543773,-0.92017895,-2.1428463,2.2162435,-0.0069100135,-0.00015225113,0.25713933,0.0073234565,-0.009487042,0.024103982,0.02547313,-0.036898524,0.010050106,0.041895274,1.8017246,-0.80342245,-1.1337956,-0.53015834,0.01776818,99.7061,0.1,0.35444367,0.39168462,0.14089501,0.10476626,inf,inf,inf,inf,1,1,1,1,3,1,3,2,4,1,1,1,0
479923223,479920657,31044075,49.078753500000005,2.2543773,-0.92042595,-2.1433663,2.2164695,-0.0069100135,-0.00015225113,0.25713933,-0.004498931,-0.01120988,0.029316055,0.03061545,-0.036898524,0.010050106,0.041895274,-1.4909325,0.38010374,0.055845678,-0.5301164,0.01776818,99.7061,0.1,0.35527945,0.39235786,0.14132538,0.10495457,inf,inf,inf,inf,1,1,1,1,3,1,3,2,4,1,1,1,0
479932962,479930665,31044075,49.078753500000005,2.2543773,-0.92065275,-2.1438503,2.2167706,-0.0069100135,-0.00015225113,0.25713933,0.0049987435,-0.007833622,0.033392176,0.034704,-0.036898524,0.010050106,0.041895274,-0.2187146,0.4793907,1.9752799,-0.52994055,0.01776818,99.7061,0.1,0.35612002,0.39057836,0.14178814,0.10487092,inf,inf,inf,inf,1,1,1,1,3,1,3,2,4,1,1,1,0
479943214,479940672,31044075,49.078753500000005,2.2543773,-0.9209157,-2.1443322,2.2170658,-0.0069100135,-0.00015225113,0.25713933,0.0070478665,-0.006751426,0.02739317,0.02871624,-0.036898524,0.010050106,0.041895274,3.1259959,1.713928,0.68988067,-0.529841,0.01776818,99.7061,0.1,0.35696554,0.39125177,0.14223553,0.10505945,inf,inf,inf,inf,1,1,1,1,3,1,3,2,4,1,1,1,0
479952704,479950680,31044075,49.078753500000005,2.2543773,-0.9211383,-2.144747,2.2173717,-0.0069100135,-0.00015225113,0.25713933,-0.004320076,-0.015430664,0.016864548,0.01819773,-0.036898524,0.010050106,0.041895274,-1.3153391,-2.8916092,-3.5468702,-0.5298555,0.01776818,99.7061,0.1,0.35781592,0.39192736,0.1426748,0.10524807,inf,inf,inf,inf,1,1,1,1,3,1,3,2,4,1,1,1,0
479963225,479960690,31044075,49.078753500000005,2.2543773,-0.92137384,-2.1451209,2.2176642,-0.0069100135,-0.00015225113,0.25713933,0.0009476503,0.0032007808,0.032459207,0.033801414,-0.036898524,0.010050106,0.041895274,-0.11100265,0.7036892,0.526851,-0.52964985,0.01776818,99.7061,0.1,0.35867116,0.39260516,0.14312418,0.10543704,inf,inf,inf,inf,1,1,1,1,3,1,3,2,4,1,1,1,0
479972725,479970695,31044075,49.078753500000005,2.2543773,-0.9216147,-2.1455183,2.2179403,-0.0069100135,-0.00015225113,0.25713933,-0.0031090267,-0.0011471359,0.03071341,0.03206354,-0.036898524,0.010050106,0.041895274,-0.24327011,2.6951656,2.207682,-0.529574,0.01776818,99.7061,0.1,0.3595313,0.39328519,0.14355007,0.10562468,inf,inf,inf,inf,1,1,1,1,3,1,3,2,4,1,1,1,0
479983367,479980703,31044075,49.078753500000005,2.2543773,-0.92182404,-2.1458294,2.2182486,-0.0069100135,-0.00015225113,0.25713933,-0.0044624917,-0.009895665,0.02313592,0.02449299,-0.036898524,0.010050106,0.041895274,-1.9893483,-3.2255847,-1.5157565,-0.52966493,0.01776818,99.7061,0.1,0.36039636,0.39396742,0.14401719,0.10581307,inf,inf,inf,inf,1,1,1,1,3,1,3,2,4,1,1,1,0
479992831,479990711,31044075,49.078753500000005,2.2543773,-0.9220617,-2.146144,2.21875,-0.0069100135,-0.00015225113,0.25713933,0.006311981,0.009651604,0.028560335,0.030119475,-0.036898524,0.010050106,0.041895274,2.5759883,2.4408278,-0.6585262,-0.5294229,0.01776818,99.7061,0.10106301,0.36126637,0.39216667,0.14445448,0.10572243,inf,inf,inf,inf,1,1,1,1,3,1,3,2,4,1,1,1,0
480003344,480000722,31044075,49.078753500000005,2.2543773,-0.9222841,-2.1464655,2.2192414,-0.0069100135,-0.00015225113,0.25713933,-0.008666469,-0.0071215094,0.03121807,0.032969665,-0.036898524,0.010050106,0.041895274,-1.0789274,0.22857954,0.8019018,-0.52928746,0.01776818,99.7061,0.100869656,0.36214125,0.392849,0.14491709,0.10591133,inf,inf,inf,inf,1,1,1,1,3,1,3,2,4,1,1,1,0
480012724,480010725,31044075,49.078753500000005,2.2543773,-0.92246354,-2.1467125,2.2197168,-0.0069100135,-0.00015225113,0.25713933,-0.0029017876,-0.0039470475,0.025866752,0.027801525,-0.036898524,0.010050106,0.041895274,-2.3632495,-3.0496287,-0.23011622,-0.52925175,0.01776818,99.7061,0.10066223,0.3630212,0.39353356,0.14538285,0.10610117,inf,inf,inf,inf,1,1,1,1,3,1,3,2,4,1,1,1,0
480023786,480020733,31044075,49.078753500000005,2.2543773,-0.92267823,-2.1470003,2.2202063,-0.0069100135,-0.00015225113,0.25713933,0.0066803386,0.011408885,0.02790779,0.0300168,-0.036898524,0.010050106,0.041895274,2.836496,3.9318569,-1.0147206,-0.5289206,0.01776818,99.7061,0.100426674,0.36390615,0.39422035,0.14583601,0.10628899,inf,inf,inf,inf,1,1,1,1,3,1,3,2,4,1,1,1,0
480032723,480030741,31044075,49.078753500000005,2.2543773,-0.9228672,-2.1472428,2.2206838,-0.0069100135,-0.00015225113,0.25713933,-0.0069040135,-0.008215413,0.031835023,0.03410966,-0.036898524,0.010050106,0.041895274,-1.02607,-1.7435552,0.55696267,-0.5287218,0.01776818,99.7061,0.10023022,0.36479613,0.39490935,0.146271,0.10647789,inf,inf,inf,inf,1,1,1,1,3,1,3,2,4,1,1,1,0
480045528,480040748,31044075,49.078753500000005,2.2543773,-0.92261004,-2.1473672,2.221431,-0.0069100135,-0.00015225113,0.25713933,-0.0024556136,0.0059746373,0.026307331,0.029052768,-0.036898524,0.010050106,0.041895274,-2.673896,-1.2533146,0.65234023,-0.52869505,0.01776818,99.7061,0.107492924,0.34886238,0.38871878,0.13739349,0.103528485,inf,inf,inf,inf,1,1,1,1,3,1,3,2,4,1,1,1,0
480052882,480050962,31044075,49.078753500000005,2.2543773,-0.9223894,-2.1475446,2.222167,-0.0069100135,-0.00015225113,0.25713933,0.011057928,0.015884083,0.021900306,0.025094673,-0.036898524,0.010050106,0.041895274,3.087298,5.5251694,-1.1324837,-0.5282229,0.01776818,99.7061,0.10708904,0.34966132,0.3893788,0.13785653,0.10371535,inf,inf,inf,inf,1,1,1,1,3,1,3,2,4,1,1,1,0
480062834,480060919,31044075,49.078753500000005,2.2543773,-0.92217517,-2.147651,2.2229097,-0.0069100135,-0.00015225113,0.25713933,-0.0075227087,-0.009338676,0.02892279,0.032545004,-0.036898524,0.010050106,0.041895274,-1.0022073,-3.4085758,-0.7949595,-0.52800137,0.01776818,99.7061,0.1065948,0.35046503,0.3900409,0.13833636,0.10390342,inf,inf,inf,inf,1,1,1,1,3,1,3,2,4,1,1,1,0
480073081,480070875,31044075,49.078753500000005,2.2543773,-0.9219451,-2.1477365,2.223606,-0.0069100135,-0.00015225113,0.25713933,-0.0011245062,0.009461867,0.034324877,0.03835465,-0.036898524,0.010050106,0.041895274,-1.8067307,-0.7704727,2.7437398,-0.52804667,0.01776818,99.7061,0.106172085,0.3512736,0.39070523,0.13872324,0.1040883,inf,inf,inf,inf,1,1,1,1,3,1,3,2,4,1,1,1,0
480082613,480080837,31044075,49.078753500000005,2.2543773,-0.9217512,-2.1478837,2.2243445,-0.0069100135,-0.00015225113,0.25713933,0.01155243,0.011950275,0.022956904,0.027374659,-0.036898524,0.010050106,0.041895274,3.930022,4.8391457,-2.329079,-0.527585,0.01776818,99.7061,0.10577583,0.35208672,0.39137173,0.13917296,0.104276,inf,inf,inf,inf,1,1,1,1,3,1,3,2,4,1,1,1,0
480093455,480090798,31044075,49.078753500000005,2.2543773,-0.9215248,-2.1479683,2.2250957,-0.0069100135,-0.00015225113,0.25713933,-0.006521321,-0.010020118,0.032990325,0.03781498,-0.036898524,0.010050106,0.041895274,-1.8118733,-3.7753165,-0.09020881,-0.52744806,0.01776818,99.7061,0.10624862,0.35290465,0.38960388,0.13964482,0.10419778,inf,inf,inf,inf,1,1,1,1,3,1,3,2,4,1,1,1,0
480102571,480100795,31044075,49.078753500000005,2.2543773,-0.92126834,-2.1480417,2.2257967,-0.0069100135,-0.00015225113,0.25713933,0.0076173516,0.010033678,0.033525124,0.03873678,-0.036898524,0.010050106,0.041895274,-0.68216753,-0.019045927,2.4759514,-0.52738416,0.01776818,99.7061,0.10583305,0.35372743,0.39027056,0.14007065,0.104382865,inf,inf,inf,inf,1,1,1,1,3,1,3,2,4,1,1,1,0
480113076,480110804,31044075,49.078753500000005,2.2543773,-0.92105585,-2.148171,2.2265503,-0.0069100135,-0.00015225113,0.25713933,0.011177506,0.006600184,0.026327835,0.03190732,-0.036898524,0.010050106,0.041895274,3.4179006,3.597825,-2.2712708,-0.52693653,0.01776818,99.7061,0.105404854,0.35455495,0.39093938,0.14050658,0.10457229,inf,inf,inf,inf,1,1,1,1,3,1,3,2,4,1,1,1,0
480122494,480120811,31044075,49.078753500000005,2.2543773,-0.9208123,-2.1482594,2.2272844,-0.0069100135,-0.00015225113,0.25713933,-0.0034493254,-0.016868964,0.035023715,0.040952522,-0.036898524,0.010050106,0.041895274,-2.125362,-5.221905,-0.18059967,-0.52685195,0.01776818,99.7061,0.10498142,0.35538724,0.39161044,0.14097273,0.104759514,inf,inf,inf,inf,1,1,1,1,3,1,3,2,4,1,1,1,0
480133017,480130821,31044075,49.078753500000005,2.2543773,-0.9205303,-2.1483467,2.227964,-0.0069100135,-0.00015225113,0.25713933,0.008841766,0.008980258,0.038940392,0.045200653,-0.036898524,0.010050106,0.041895274,-1.5002042,0.54437107,3.45494,-0.5268098,0.01776818,99.7061,0.10459566,0.35622448,0.39228368,0.14141299,0.10494534,inf,inf,inf,inf,1,1,1,1,3,1,3,2,4,1,1,1,0
480142400,480140827,31044075,49.078753500000005,2.2543773,-0.9202943,-2.1484885,2.2286742,-0.0069100135,-0.00015225113,0.25713933,0.016574638,0.0018584331,0.020136276,0.02671081,-0.036898524,0.010050106,0.041895274,3.749768,3.4832907,-3.5446906,-0.5263031,0.01776818,99.7061,0.10420799,0.35706648,0.3929591,0.14184621,0.10513537,inf,inf,inf,inf,1,1,1,1,3,1,3,2,4,1,1,1,0
480153314,480150837,31044075,49.078753500000005,2.2543773,-0.9200218,-2.1485572,2.2295592,-0.0069100135,-0.00015225113,0.25713933,-0.0019315963,-0.012014233,0.037295993,0.04437563,-0.036898524,0.010050106,0.041895274,-2.7292166,-4.107925,0.45496505,-0.5261528,0.01776818,99.7061,0.10872984,0.35791332,0.39117053,0.14231555,0.10504774,inf,inf,inf,inf,1,1,1,1,3,1,3,2,4,1,1,1,0
480162189,480160844,31044075,49.078753500000005,2.2543773,-0.9197443,-2.1486552,2.230385,-0.0069100135,-0.00015225113,0.25713933,0.01114331,0.0049451184,0.037870143,0.045429725,-0.036898524,0.010050106,0.041895274,-0.90741366,1.2331886,3.8877683,-0.5260459,0.01776818,99.7061,0.108181,0.3587651,0.3918461,0.14278968,0.10523458,inf,inf,inf,inf,1,1,1,1,3,1,3,2,4,1,1,1,0
480173140,480170848,31044075,49.078753500000005,2.2543773,-0.91953766,-2.1487699,2.2312386,-0.0069100135,-0.00015225113,0.25713933,0.011843261,-0.0010645115,0.017069357,0.025084764,-0.036898524,0.010050106,0.041895274,3.3652172,1.9877332,-4.2040105,-0.5255751,0.01776818,99.7061,0.10761213,0.35962185,0.39252385,0.14321162,0.10542553,inf,inf,inf,inf,1,1,1,1,3,1,3,2,4,1,1,1,0
480182060,480180859,31044075,49.078753500000005,2.2543773,-0.9193216,-2.1488657,2.232085,-0.0069100135,-0.00015225113,0.25713933,-0.0053480654,-0.013429866,0.042949058,0.051396955,-0.036898524,0.010050106,0.041895274,-2.3151648,-2.9144242,1.128767,-0.52542746,0.01776818,99.7061,0.107108355,0.36048344,0.39320382,0.14364086,0.10561135,inf,inf,inf,inf,1,1,1,1,3,1,3,2,4,1,1,1,0
480193273,480190866,31044075,49.078753500000005,2.2543773,-0.9191129,-2.1489775,2.2328773,-0.0069100135,-0.00015225113,0.25713933,0.0021188261,-0.001838886,0.036924534,0.045782447,-0.036898524,0.010050106,0.041895274,-1.5042155,0.37540784,3.3252437,-0.52537924,0.01776818,99.7061,0.10662937,0.36134985,0.393886,0.14413376,0.10579928,inf,inf,inf,inf,1,1,1,1,3,1,3,2,4,1,1,1,0
480202477,480200874,31044075,49.078753500000005,2.2543773,-0.91894037,-2.1490948,2.2340128,-0.0069100135,-0.00015225113,0.25713933,0.010014297,-0.00031260468,0.02369357,0.03324201,-0.036898524,0.010050106,0.041895274,2.936564,2.3816304,-3.7670848,-0.524988,0.01776818,99.7061,0.11321926,0.36222136,0.3920867,0.1445466,0.10571128,inf,inf,inf,inf,1,1,1,1,3,1,3,2,4,1,1,1,0
480212280,480210882,31044075,49.078753500000005,2.2543773,-0.9187719,-2.149186,2.2350793,-0.0069100135,-0.00015225113,0.25713933,-0.0067347507,-0.011274008,0.033963878,0.044168618,-0.036898524,0.010050106,0.041895274,-1.3282037,-1.6533855,-0.22476564,-0.5248425,0.01776818,99.7061,0.11252284,0.36309764,0.392769,0.14499775,0.10589725,inf,inf,inf,inf,1,1,1,1,3,1,3,2,4,1,1,1,0
480222229,480220889,31044075,49.078753500000005,2.2543773,-0.91862094,-2.1492476,2.2360399,-0.0069100135,-0.00015225113,0.25713933,-0.0074361884,-0.00469735,0.026619272,0.037447356,-0.036898524,0.010050106,0.041895274,-2.4854486,-1.5854678,1.7291583,-0.52496964,0.01776818,99.7061,0.11189985,0.36397895,0.3934535,0.14547883,0.10608606,inf,inf,inf,inf,1,1,1,1,3,1,3,2,4,1,1,1,0
480232099,480230901,31044075,49.078753500000005,2.2543773,-0.91854113,-2.1493428,2.2369912,-0.0069100135,-0.00015225113,0.25713933,-0.003081835,0.0028914104,0.017463712,0.028883288,-0.036898524,0.010050106,0.041895274,1.4509673,2.7673209,-2.3994684,-0.5246082,0.01776818,99.7061,0.11129117,0.36486533,0.39414024,0.14590049,0.10627731,inf,inf,inf,inf,1,1,1,1,3,1,3,2,4,1,1,1,0
480244208,480240904,31044075,49.078753500000005,2.2543773,-0.91853875,-2.149959,2.2378876,-0.0069100135,-0.00015225113,0.25713933,-0.011921439,-0.011219877,0.03037434,0.04233112,-0.036898524,0.010050106,0.041895274,-0.24550812,-0.82717776,0.9971291,-0.52448606,0.01776818,99.7061,0.11023402,0.3489913,0.39040458,0.13708848,0.10360253,inf,inf,inf,inf,1,1,1,1,3,1,3,2,4,1,1,1,0
480252214,480250912,31044075,49.078753500000005,2.2543773,-0.9185281,-2.1505547,2.2388542,-0.0069100135,-0.00015225113,0.25713933,-0.012743322,-0.008689729,0.023563327,0.036162082,-0.036898524,0.010050106,0.041895274,-1.6449456,-1.266003,1.7318558,-0.52462304,0.01776818,99.7061,0.1128695,0.34978727,0.38864806,0.1375971,0.10352838,inf,inf,inf,inf,1,1,1,1,3,1,3,2,4,1,1,1,0
480262330,480260918,31044075,49.078753500000005,2.2543773,-0.9185523,-2.1511455,2.2398744,-0.0069100135,-0.00015225113,0.25713933,-0.004352224,0.00036060414,0.022052271,0.035259657,-0.036898524,0.010050106,0.041895274,2.0904279,2.2054021,-2.6429482,-0.5243359,0.01776818,99.7061,0.11217332,0.3505881,0.38930812,0.13797721,0.10371667,inf,inf,inf,inf,1,1,1,1,3,1,3,2,4,1,1,1,0
480272083,480270923,31044075,49.078753500000005,2.2543773,-0.91859204,-2.1516898,2.2408395,-0.0069100135,-0.00015225113,0.25713933,-0.012487365,-0.00241423,0.035398986,0.04918286,-0.036898524,0.010050106,0.041895274,0.9592048,1.211263,2.5470657,-0.52427524,0.01776818,99.7061,0.11161852,0.35139352,0.38997033,0.138418,0.1039015,inf,inf,inf,inf,1,1,1,1,3,1,3,2,4,1,1,1,0
480282572,480280935,31044075,49.078753500000005,2.2543773,-0.9186286,-2.1521807,2.2417827,-0.0069100135,-0.00015225113,0.25713933,-0.019055853,-0.010705877,0.020826345,0.035155762,-0.036898524,0.010050106,0.041895274,-1.8660723,-2.8187366,-0.6694853,-0.5244952,0.01776818,99.7061,0.110984564,0.35220364,0.39063472,0.1389363,0.10408907,inf,inf,inf,inf,1,1,1,1,3,1,3,2,4,1,1,1,0
480292063,480290937,31044075,49.078753500000005,2.2543773,-0.9186657,-2.1526423,2.2427382,-0.0069100135,-0.00015225113,0.25713933,-0.011390765,0.0085672205,0.025359651,0.040204745,-0.036898524,0.010050106,0.041895274,-0.28234962,1.6142806,-2.2858503,-0.52426326,0.01776818,99.7061,0.11036134,0.35301873,0.39130124,0.13928677,0.10427737,inf,inf,inf,inf,1,1,1,1,3,1,3,2,4,1,1,1,0
480302366,480300950,31044075,49.078753500000005,2.2543773,-0.91871446,-2.153098,2.2436237,-0.0069100135,-0.00015225113,0.25713933,-0.010454016,0.0015193044,0.031066455,0.046398614,-0.036898524,0.010050106,0.041895274,1.0915343,1.8772136,1.9431835,-0.52413416,0.01776818,99.7061,0.10990906,0.3538383,0.39196998,0.13975328,0.104462974,inf,inf,inf,inf,1,1,1,1,3,1,3,2,4,1,1,1,0
480312439,480311157,31044075,49.078753500000005,2.2543773,-0.9187361,-2.1534886,2.2446108,-0.0069100135,-0.00015225113,0.25713933,-0.018743683,-0.006678845,0.018714312,0.03461609,-0.036898524,0.010050106,0.041895274,-2.3549259,-2.9877105,-1.6420714,-0.52450275,0.01776818,99.7061,0.11196375,0.35466272,0.39019325,0.14024734,0.104381144,inf,inf,inf,inf,1,1,1,1,3,1,3,2,4,1,1,1,0
480322649,480321121,31044075,49.078753500000005,2.2543773,-0.91876364,-2.1538692,2.24562,-0.0069100135,-0.00015225113,0.25713933,-0.010007148,0.011412079,0.035201386,0.051641323,-0.036898524,0.010050106,0.041895274,-0.33161595,1.720666,-0.1771582,-0.52424586,0.01776818,99.7061,0.11127734,0.3554921,0.3908621,0.14065607,0.104569495,inf,inf,inf,inf,1,1,1,1,3,1,3,2,4,1,1,1,0
480332163,480331075,31044075,49.078753500000005,2.2543773,-0.9188179,-2.1542249,2.246585,-0.0069100135,-0.00015225113,0.25713933,-0.011078333,0.00084909546,0.028874665,0.045822434,-0.036898524,0.010050106,0.041895274,1.1436942,-0.09998799,0.47109285,-0.5241785,0.01776818,99.7061,0.11064696,0.3563261,0.39153317,0.14112984,0.10475587,inf,inf,inf,inf,1,1,1,1,3,1,3,2,4,1,1,1,0
480342752,480341031,31044075,49.078753500000005,2.2543773,-0.9188609,-2.1545103,2.2474973,-0.0069100135,-0.00015225113,0.25713933,-0.018598795,0.0045011784,0.012958371,0.03038479,-0.036898524,0.010050106,0.041895274,-1.6747738,-2.185153,-3.843521,-0.52442753,0.01776818,99.7061,0.10998678,0.35716507,0.39220643,0.14161329,0.10494221,inf,inf,inf,inf,1,1,1,1,3,1,3,2,4,1,1,1,0
480352053,480350995,31044075,49.078753500000005,2.2543773,-0.91883695,-2.154736,2.2481549,-0.0069100135,-0.00015225113,0.25713933,-0.006567352,0.024036594,0.0048407936,0.022717712,-0.036898524,0.010050106,0.041895274,-1.5355047,2.2715838,1.4583534,-0.5243637,0.01776818,99.7061,0.109597206,0.35800898,0.39288184,0.14201815,0.10513122,inf,inf,inf,inf,1,1,1,1,3,1,3,2,4,1,1,1,0
480362834,480360989,31044075,49.078753500000005,2.2543773,-0.918793,-2.1548817,2.248844,-0.0069100135,-0.00015225113,0.25713933,0.00082639296,0.016167613,-0.0071022185,0.011222258,-0.036898524,0.010050106,0.041895274,0.9866598,-0.84213513,-4.025508,-0.5240078,0.01776818,99.7061,0.10979867,0.3588576,0.39109477,0.14249815,0.105044685,inf,inf,inf,inf,1,1,1,1,3,1,3,2,4,1,1,1,0
480372051,480370997,31044075,49.078753500000005,2.2543773,-0.9186839,-2.1549792,2.2495358,-0.0069100135,-0.00015225113,0.25713933,0.0023375424,0.03710021,0.010558075,0.02930294,-0.036898524,0.010050106,0.041895274,-0.42279735,3.3429346,-1.0158093,-0.5235565,0.01776818,99.7061,0.109362125,0.3597112,0.39177033,0.14296123,0.10523114,inf,inf,inf,inf,1,1,1,1,3,1,3,2,4,1,1,1,0
480382120,480381004,31044075,49.078753500000005,2.2543773,-0.9185419,-2.1550074,2.2501473,-0.0069100135,-0.00015225113,0.25713933,0.018283596,0.0190931,0.014024646,0.0331638,-0.036898524,0.010050106,0.041895274,3.2238514,-2.132029,4.200729,-0.5235913,0.01776818,99.7061,0.109063625,0.36056966,0.39244813,0.14337169,0.105419084,inf,inf,inf,inf,1,1,1,1,3,1,3,2,4,1,1,1,0
480392395,480391017,31044075,49.078753500000005,2.2543773,-0.9183763,-2.1549625,2.250901,-0.0069100135,-0.00015225113,0.25713933,0.011642421,0.042872168,0.027503824,0.04701221,-0.036898524,0.010050106,0.041895274,1.7985466,0.7215161,2.1313884,-0.5234327,0.01776818,99.7061,0.10861707,0.3614329,0.3931281,0.14388853,0.105607875,inf,inf,inf,inf,1,1,1,1,3,1,3,2,4,1,1,1,0
480402119,480401019,31044075,49.078753500000005,2.2543773,-0.9181399,-2.1548882,2.2516224,-0.0069100135,-0.00015225113,0.25713933,0.009553915,0.0407916,0.017327478,0.03718093,-0.036898524,0.010050106,0.041895274,-2.4082673,1.775113,0.7878123,-0.52308756,0.01776818,99.7061,0.108150005,0.36230126,0.3938103,0.14433631,0.10579335,inf,inf,inf,inf,1,1,1,1,3,1,3,2,4,1,1,1,0
480412678,480411032,31044075,49.078753500000005,2.2543773,-0.91791785,-2.1546948,2.2523894,-0.0069100135,-0.00015225113,0.25713933,0.012240416,0.04875136,0.01823555,0.038369246,-0.036898524,0.010050106,0.041895274,-1.2079511,-0.20897074,-4.1115236,-0.52245045,0.01776818,99.7061,0.10738301,0.3631745,0.39201245,0.1447828,0.10570346,inf,inf,inf,inf,1,1,1,1,3,1,3,2,4,1,1,1,0
480422212,480421035,31044075,49.078753500000005,2.2543773,-0.9176258,-2.154524,2.253146,-0.0069100135,-0.00015225113,0.25713933,0.025169704,0.05594848,0.03684024,0.05723353,-0.036898524,0.010050106,0.041895274,0.029415855,4.0046253,1.2743088,-0.52188295,0.01776818,99.7061,0.10662651,0.3640526,0.3926947,0.1453065,0.10589255,inf,inf,inf,inf,1,1,1,1,3,1,3,2,4,1,1,1,0
480432658,480431043,31044075,49.078753500000005,2.2543773,-0.9174171,-2.1541932,2.2539206,-0.0069100135,-0.00015225113,0.25713933,0.029550012,0.046946995,0.035953008,0.056586273,-0.036898524,0.010050106,0.041895274,5.914014,-3.939634,1.4169825,-0.5214515,0.01776818,99.7061,0.10585189,0.3649359,0.39337924,0.14571549,0.106078535,inf,inf,inf,inf,1,1,1,1,3,1,3,2,4,1,1,1,0
480443067,480441052,31044075,49.078753500000005,2.2543773,-0.91706353,-2.154286,2.2547438,-0.0069100135,-0.00015225113,0.25713933,0.00195897,0.06792021,0.032062635,0.052966528,-0.036898524,0.010050106,0.041895274,-5.251379,1.9546274,-0.4781476,-0.52096665,0.01776818,99.7061,0.10640454,0.3491146,0.38967758,0.13698858,0.10342314,inf,inf,inf,inf,1,1,1,1,3,1,3,2,4,1,1,1,0
480452678,480451059,31044075,49.078753500000005,2.2543773,-0.91675913,-2.1542552,2.2555258,-0.0069100135,-0.00015225113,0.25713933,0.016470062,0.06734616,0.0298077,0.05096185,-0.036898524,0.010050106,0.041895274,-1.8639208,-0.1871962,-0.67470205,-0.5206112,0.01776818,99.7061,0.10585189,0.3499079,0.3903375,0.13750502,0.1036092,inf,inf,inf,inf,1,1,1,1,3,1,3,2,4,1,1,1,0
480462209,480461064,31044075,49.078753500000005,2.2543773,-0.91654366,-2.154207,2.2563052,-0.0069100135,-0.00015225113,0.25713933,0.018831333,0.08032095,0.027550587,0.048935283,-0.036898524,0.010050106,0.041895274,3.612708,3.9023983,-2.0271256,-0.5195498,0.01776818,99.7061,0.10518074,0.35070604,0.3909996,0.13799721,0.103793606,inf,inf,inf,inf,1,1,1,1,3,1,3,2,4,1,1,1,0
480472812,480471072,31044075,49.078753500000005,2.2543773,-0.91634476,-2.1541326,2.2569785,-0.0069100135,-0.00015225113,0.25713933,-0.0023362832,0.063387446,0.030202385,0.051799618,-0.036898524,0.010050106,0.041895274,-1.9374032,-0.010772968,2.0622666,-0.5190952,0.01776818,99.7061,0.104534864,0.351509,0.38923427,0.1385064,0.10371771,inf,inf,inf,inf,1,1,1,1,3,1,3,2,4,1,1,1,0
480482227,480481081,31044075,49.078753500000005,2.2543773,-0.9161637,-2.1540258,2.2576385,-0.0069100135,-0.00015225113,0.25713933,0.0063288156,0.058351994,0.015187475,0.036979,-0.036898524,0.010050106,0.041895274,-0.88339895,-3.5849001,-2.361558,-0.51883656,0.01776818,99.7061,0.10390949,0.3523168,0.38989654,0.13891289,0.10390231,inf,inf,inf,inf,1,1,1,1,3,1,3,2,4,1,1,1,0
480492788,480491087,31044075,49.078753500000005,2.2543773,-0.9159896,-2.1539822,2.2581742,-0.0069100135,-0.00015225113,0.25713933,0.0048069027,0.06433936,0.023914691,0.045883168,-0.036898524,0.010050106,0.041895274,-0.23101968,1.0549012,3.274227,-0.5184553,0.01776818,99.7061,0.10351443,0.35312915,0.39056095,0.13937214,0.10409187,inf,inf,inf,inf,1,1,1,1,3,1,3,2,4,1,1,1,0
480502224,480501095,31044075,49.078753500000005,2.2543773,-0.9158016,-2.1539922,2.2587526,-0.0069100135,-0.00015225113,0.25713933,0.016442915,0.053413738,0.0075410497,0.029669588,-0.036898524,0.010050106,0.041895274,2.5457366,1.2608072,-2.9965816,-0.517941,0.01776818,99.7061,0.10315919,0.35394624,0.39122757,0.13979831,0.10427644,inf,inf,inf,inf,1,1,1,1,3,1,3,2,4,1,1,1,0
480512966,480511102,31044075,49.078753500000005,2.2543773,-0.91560477,-2.1540043,2.2592664,-0.0069100135,-0.00015225113,0.25713933,0.0021624258,0.046800874,0.020525016,0.042797506,-0.036898524,0.010050106,0.041895274,-1.121607,-0.8604981,1.3541719,-0.5174633,0.01776818,99.7061,0.10288358,0.35476795,0.3918963,0.14031127,0.10446433,inf,inf,inf,inf,1,1,1,1,3,1,3,2,4,1,1,1,0
480522398,480521110,31044075,49.078753500000005,2.2543773,-0.9154011,-2.1540189,2.2596204,-0.0069100135,-0.00015225113,0.25713933,0.010761479,0.038903452,0.019713515,0.041945137,-0.036898524,0.010050106,0.041895274,-0.40102795,-3.079931,1.4078528,-0.51754284,0.01776818,99.7061,0.102529526,0.35559455,0.39012098,0.14078757,0.10438259,inf,inf,inf,inf,1,1,1,1,3,1,3,2,4,1,1,1,0
480532671,480531117,31044075,49.078753500000005,2.2543773,-0.9152433,-2.1540372,2.2600617,-0.0069100135,-0.00015225113,0.25713933,0.007602903,0.054083657,0.02548443,0.04766788,-0.036898524,0.010050106,0.041895274,1.2023817,1.6896563,-0.7445365,-0.5171446,0.01776818,99.7061,0.10208821,0.35642597,0.3907899,0.14120191,0.10456987,inf,inf,inf,inf,1,1,1,1,3,1,3,2,4,1,1,1,0
480542299,480541125,31044075,49.078753500000005,2.2543773,-0.91506004,-2.1540973,2.260506,-0.0069100135,-0.00015225113,0.25713933,-0.0006763495,0.043813813,0.02762314,0.04975145,-0.036898524,0.010050106,0.041895274,-2.479364,2.3626332,0.14844035,-0.51651603,0.01776818,99.7061,0.10164404,0.357262,0.39146098,0.14168851,0.104759134,inf,inf,inf,inf,1,1,1,1,3,1,3,2,4,1,1,1,0
480552350,480551132,31044075,49.078753500000005,2.2543773,-0.9149391,-2.1541216,2.2610126,-0.0069100135,-0.00015225113,0.25713933,0.0031578513,0.026494278,0.026787963,0.048854344,-0.036898524,0.010050106,0.041895274,0.13680753,-4.6166987,-2.655372,-0.5165646,0.01776818,99.7061,0.1011374,0.3581029,0.39213428,0.14218894,0.10494477,inf,inf,inf,inf,1,1,1,1,3,1,3,2,4,1,1,1,0
480562435,480561140,31044075,49.078753500000005,2.2543773,-0.91484696,-2.1542168,2.2614791,-0.0069100135,-0.00015225113,0.25713933,-0.002397973,0.035853595,0.04797446,0.06997258,-0.036898524,0.010050106,0.041895274,-0.20927627,-0.07654211,4.9450626,-0.516315,0.01776818,99.7061,0.100670815,0.3589487,0.39280978,0.14268604,0.10513339,inf,inf,inf,inf,1,1,1,1,3,1,3,2,4,1,1,1,0
480572617,480571336,31044075,49.078753500000005,2.2543773,-0.9147807,-2.154324,2.2617557,-0.0069100135,-0.00015225113,0.25713933,-0.008110545,0.031216126,0.026079439,0.047780603,-0.036898524,0.010050106,0.041895274,-1.3702338,0.8762209,-0.78280413,-0.51592225,0.01776818,99.7061,0.10039425,0.35979947,0.39102402,0.14318605,0.10504692,inf,inf,inf,inf,1,1,1,1,3,1,3,2,4,1,1,1,0
480582684,480581299,31044075,49.078753500000005,2.2543773,-0.91475743,-2.15448,2.2621243,-0.0069100135,-0.00015225113,0.25713933,-0.008688649,0.023528336,0.03420869,0.055617068,-0.036898524,0.010050106,0.041895274,-0.47279194,0.48418993,-4.422687,-0.51549125,0.01776818,99.7061,0.100025654,0.36065516,0.39169964,0.14366753,0.10523741,inf,inf,inf,inf,1,1,1,1,3,1,3,2,4,1,1,1,0
480592347,480591258,31044075,49.078753500000005,2.2543773,-0.91474515,-2.1546621,2.2623816,-0.0069100135,-0.00015225113,0.25713933,-0.0068366374,0.008186719,0.05504647,0.076166,-0.036898524,0.010050106,0.041895274,0.31840408,-3.382502,7.177046,-0.5156261,0.01776818,99.7061,0.1,0.36151576,0.39237744,0.14421842,0.10542693,inf,inf,inf,inf,1,1,1,1,3,1,3,2,4,1,1,1,0
480602744,480601217,31044075,49.078753500000005,2.2543773,-0.9148057,-2.1548898,2.2627265,-0.0069100135,-0.00015225113,0.25713933,-0.015446406,0.017098485,0.021674648,0.04250931,-0.036898524,0.010050106,0.041895274,0.7864803,0.1711376,-4.16201,-0.51548576,0.01776818,99.7061,0.1,0.36238152,0.3930575,0.14468406,0.105615176,inf,inf,inf,inf,1,1,1,1,3,1,3,2,4,1,1,1,0
480612259,480611183,31044075,49.078753500000005,2.2543773,-0.914832,-2.1551738,2.2630296,-0.0069100135,-0.00015225113,0.25713933,-0.024439376,0.011572385,0.03503605,0.055589754,-0.036898524,0.010050106,0.041895274,-4.1865253,2.314525,-1.7915045,-0.5150421,0.01776818,99.7061,0.1,0.36325213,0.39373973,0.14524463,0.10580563,inf,inf,inf,inf,1,1,1,1,3,1,3,2,4,1,1,1,0
480622821,480621186,31044075,49.078753500000005,2.2543773,-0.91492146,-2.1554432,2.2632794,-0.0069100135,-0.00015225113,0.25713933,-0.003439814,-0.0014630015,0.037228204,0.05750489,-0.036898524,0.010050106,0.041895274,3.6837428,-2.2066264,2.4241335,-0.5149791,0.01776818,99.7061,0.1,0.364128,0.3944242,0.1456978,0.10599546,inf,inf,inf,inf,1,1,1,1,3,1,3,2,4,1,1,1,0
480632524,480631193,31044075,49.078753500000005,2.2543773,-0.9150102,-2.155773,2.263451,-0.0069100135,-0.00015225113,0.25713933,-0.019081082,-0.001036253,0.03776701,0.057634946,-0.036898524,0.010050106,0.041895274,0.94346607,-0.55229104,0.7000349,-0.51504415,0.01776818,99.7061,0.1,0.36500868,0.39261708,0.14620511,0.105904855,inf,inf,inf,inf,1,1,1,1,3,1,3,2,4,1,1,1,0
480643451,480641200,31044075,49.078753500000005,2.2543773,-0.9148821,-2.156022,2.2638013,-0.0069100135,-0.00015225113,0.25713933,-0.023916163,0.00012137485,0.031226637,0.050914075,-0.036898524,0.010050106,0.041895274,-3.7252085,-0.15360866,0.24051471,-0.51483953,0.01776818,99.7061,0.1,0.34923664,0.38894874,0.13740632,0.10326119,inf,inf,inf,inf,1,1,1,1,3,1,3,2,4,1,1,1,0
480652412,480651208,31044075,49.078753500000005,2.2543773,-0.9147687,-2.1563182,2.2642746,-0.0069100135,-0.00015225113,0.25713933,-0.00801691,-0.0038979608,0.03444199,0.053948816,-0.036898524,0.010050106,0.041895274,0.7763773,1.1968285,-4.42436,-0.51461565,0.01776818,99.7061,0.1,0.3500272,0.38960665,0.13788956,0.10344991,inf,inf,inf,inf,1,1,1,1,3,1,3,2,4,1,1,1,0
480662880,480661215,31044075,49.078753500000005,2.2543773,-0.91466725,-2.1565917,2.2647011,-0.0069100135,-0.00015225113,0.25713933,-0.0100679565,-0.014374944,0.06367551,0.0830017,-0.036898524,0.010050106,0.041895274,1.931582,-2.9484994,6.371452,-0.51470375,0.01776818,99.7061,0.1,0.35082242,0.39026672,0.13838589,0.10363967,inf,inf,inf,inf,1,1,1,1,3,1,3,2,4,1,1,1,0
480672376,480671229,31044075,49.078753500000005,2.2543773,-0.9145619,-2.156901,2.2651806,-0.0069100135,-0.00015225113,0.25713933,-0.016783634,-0.00868796,0.033264462,0.052410014,-0.036898524,0.010050106,0.041895274,-0.70871085,-0.49596792,-1.868959,-0.514647,0.01776818,99.7061,0.1,0.35162243,0.39092898,0.13880655,0.1038263,inf,inf,inf,inf,1,1,1,1,3,1,3,2,4,1,1,1,0
480683115,480681231,31044075,49.078753500000005,2.2543773,-0.9144653,-2.1572354,2.2655876,-0.0069100135,-0.00015225113,0.25713933,-0.0209301,-0.008200343,0.03946435,0.058326233,-0.036898524,0.010050106,0.041895274,-2.565083,1.6706561,-4.2175226,-0.51448774,0.01776818,99.7061,0.1,0.35242692,0.38916516,0.1393889,0.10375097,inf,inf,inf,inf,1,1,1,1,3,1,3,2,4,1,1,1,0
480692396,480691238,31044075,49.078753500000005,2.2543773,-0.9144138,-2.1575983,2.265926,-0.0069100135,-0.00015225113,0.25713933,-0.005156816,-0.019084278,0.05805047,0.07663345,-0.036898524,0.010050106,0.041895274,3.2768097,0.027475921,4.6111445,-0.5144177,0.01776818,99.7061,0.1,0.35323647,0.3898276,0.13985848,0.10393991,inf,inf,inf,inf,1,1,1,1,3,1,3,2,4,1,1,1,0
480702572,480701246,31044075,49.078753500000005,2.2543773,-0.91440785,-2.1579425,2.2662985,-0.0069100135,-0.00015225113,0.25713933,-0.022017488,-0.025295757,0.042802826,0.06111156,-0.036898524,0.010050106,0.041895274,1.374235,-3.3662846,0.8212424,-0.5146128,0.01776818,99.7061,0.1,0.35405073,0.39049223,0.1402847,0.10412994,inf,inf,inf,inf,1,1,1,1,3,1,3,2,4,1,1,1,0
480712566,480711253,31044075,49.078753500000005,2.2543773,-0.9143219,-2.1583486,2.2667015,-0.0069100135,-0.00015225113,0.25713933,-0.02671705,-0.015256577,0.036371686,0.05441078,-0.036898524,0.010050106,0.041895274,-5.0776224,1.8224124,-3.7927368,-0.5144403,0.01776818,99.7061,0.1,0.3548695,0.39115903,0.14090708,0.10431704,inf,inf,inf,inf,1,1,1,1,3,1,3,2,4,1,1,1,0
480722395,480721261,31044075,49.078753500000005,2.2543773,-0.9142911,-2.1587563,2.2670553,-0.0069100135,-0.00015225113,0.25713933,-0.0030342862,-0.02868282,0.049854625,0.0676285,-0.036898524,0.010050106,0.041895274,3.3934526,-0.6634929,1.5274864,-0.5142456,0.01776818,99.7061,0.1,0.35569358,0.39182797,0.14136456,0.10450601,inf,inf,inf,inf,1,1,1,1,3,1,3,2,4,1,1,1,0
480732803,480731268,31044075,49.078753500000005,2.2543773,-0.9142695,-2.1591806,2.267422,-0.0069100135,-0.00015225113,0.25713933,-0.013625385,-0.029252876,0.047149442,0.06466246,-0.036898524,0.010050106,0.041895274,2.804795,-1.2112769,1.7198687,-0.5141525,0.01776818,99.7061,0.1,0.35652235,0.39249915,0.14186582,0.10469615,inf,inf,inf,inf,1,1,1,1,3,1,3,2,4,1,1,1,0
480742560,480741276,31044075,49.078753500000005,2.2543773,-0.9142287,-2.159611,2.267694,-0.0069100135,-0.00015225113,0.25713933,-0.02816285,-0.029882634,0.035322763,0.052527823,-0.036898524,0.010050106,0.041895274,-3.4888368,-0.91109693,-0.23549685,-0.5140597,0.01776818,99.7061,0.1,0.357356,0.39071497,0.14237486,0.10461374,inf,inf,inf,inf,1,1,1,1,3,1,3,2,4,1,1,1,0
480752826,480751284,31044075,49.078753500000005,2.2543773,-0.9142219,-2.1600266,2.2679808,-0.0069100135,-0.00015225113,0.25713933,-0.018456623,-0.023104705,0.02690051,0.04380405,-0.036898524,0.010050106,0.041895274,-1.0034808,0.7702012,-4.354285,-0.51380545,0.01776818,99.7061,0.1,0.35819453,0.3913863,0.1429121,0.10480225,inf,inf,inf,inf,1,1,1,1,3,1,3,2,4,1,1,1,0
480762430,480761299,31044075,49.078753500000005,2.2543773,-0.9142406,-2.1604505,2.2682333,-0.0069100135,-0.00015225113,0.25713933,-0.009353418,-0.025402483,0.05090824,0.0675165,-0.036898524,0.010050106,0.041895274,3.482444,1.4592668,3.339272,-0.51344085,0.01776818,99.7061,0.1,0.3590381,0.3920598,0.14341626,0.104991585,inf,inf,inf,inf,1,1,1,1,3,1,3,2,4,1,1,1,0
480772840,480771299,31044075,49.078753500000005,2.2543773,-0.91424894,-2.1608236,2.2685082,-0.0069100135,-0.00015225113,0.25713933,-0.020473529,-0.034648042,0.043562815,0.05988182,-0.036898524,0.010050106,0.041895274,0.5652785,-3.319439,2.8920088,-0.51338714,0.01776818,99.7061,0.1,0.3598866,0.3927355,0.14382806,0.10518175,inf,inf,inf,inf,1,1,1,1,3,1,3,2,4,1,1,1,0
480782439,480781306,31044075,49.078753500000005,2.2543773,-0.9142274,-2.1611943,2.2688398,-0.0069100135,-0.00015225113,0.25713933,-0.02319771,-0.014632722,0.031100178,0.04713587,-0.036898524,0.010050106,0.041895274,-2.741454,1.9093837,-3.6614523,-0.5131976,0.01776818,99.7061,0.1,0.36073968,0.39341342,0.14445856,0.105369955,inf,inf,inf,inf,1,1,1,1,3,1,3,2,4,1,1,1,0
480793017,480791315,31044075,49.078753500000005,2.2543773,-0.91422725,-2.1615663,2.2689788,-0.0069100135,-0.00015225113,0.25713933,-0.0098165255,-0.019276991,0.046415232,0.06199364,-0.036898524,0.010050106,0.041895274,1.596262,2.8974583,0.22648627,-0.5127614,0.01776818,99.7061,0.1,0.3615982,0.39161882,0.14495751,0.10528313,inf,inf,inf,inf,1,1,1,1,3,1,3,2,4,1,1,1,0
480802456,480801323,31044075,49.078753500000005,2.2543773,-0.914242,-2.1618524,2.2690973,-0.0069100135,-0.00015225113,0.25713933,-0.012875763,-0.029513068,0.043239698,0.058374356,-0.036898524,0.010050106,0.041895274,2.5186946,-3.7367468,2.0967166,-0.5125805,0.01776818,99.7061,0.1,0.36246166,0.39229685,0.14541377,0.10547376,inf,inf,inf,inf,1,1,1,1,3,1,3,2,4,1,1,1,0
480812886,480811329,31044075,49.078753500000005,2.2543773,-0.91421694,-2.1621585,2.2692358,-0.0069100135,-0.00015225113,0.25713933,-0.024539646,-0.0103973225,0.03367779,0.048381932,-0.036898524,0.010050106,0.041895274,-2.903642,1.9163951,-1.4437275,-0.512375,0.01776818,99.7061,0.1,0.36332995,0.39297712,0.14599578,0.10566372,inf,inf,inf,inf,1,1,1,1,3,1,3,2,4,1,1,1,0
480822497,480821337,31044075,49.078753500000005,2.2543773,-0.9141929,-2.1624246,2.2694,-0.0069100135,-0.00015225113,0.25713933,-0.011856251,-0.018943995,0.04226214,0.056548495,-0.036898524,0.010050106,0.041895274,-0.5694169,-0.03856862,-0.63017213,-0.51201916,0.01776818,99.7061,0.1,0.36420348,0.39365956,0.14654686,0.10585175,inf,inf,inf,inf,1,1,1,1,3,1,3,2,4,1,1,1,0
480833397,480831535,31044075,49.078753500000005,2.2543773,-0.9141866,-2.1626925,2.2695637,-0.0069100135,-0.00015225113,0.25713933,-0.0060506607,-0.017966634,0.041261315,0.055142224,-0.036898524,0.010050106,0.041895274,2.932844,-0.37719983,0.5744156,-0.5114653,0.01776818,99.7061,0.1,0.3650822,0.39434424,0.14702782,0.10604298,inf,inf,inf,inf,1,1,1,1,3,1,3,2,4,1,1,1,0
480843724,480841490,31044075,49.078753500000005,2.2543773,-0.9136064,-2.1633043,2.269354,-0.0069100135,-0.00015225113,0.25713933,-0.014781505,-0.02100571,0.045276783,0.05839094,-0.036898524,0.010050106,0.041895274,-0.59377,-1.9919984,2.1783812,-0.51141953,0.01776818,99.7061,0.1,0.34935543,0.38821915,0.13816445,0.10313154,inf,inf,inf,inf,1,1,1,1,3,1,3,2,4,1,1,1,0
480853378,480851456,31044075,49.078753500000005,2.2543773,-0.9130378,-2.1638925,2.2691755,-0.0069100135,-0.00015225113,0.25713933,-0.014991558,-0.008755773,0.02909975,0.041475154,-0.036898524,0.010050106,0.041895274,-1.9769148,1.1099411,-2.7068853,-0.5112382,0.01776818,99.7061,0.1,0.35014325,0.3888752,0.13872087,0.103319235,inf,inf,inf,inf,1,1,1,1,3,1,3,2,4,1,1,1,0
480862523,480861413,31044075,49.078753500000005,2.2543773,-0.9125065,-2.1644657,2.268991,-0.0069100135,-0.00015225113,0.25713933,-0.0056932047,-0.012565462,0.042378448,0.054042175,-0.036898524,0.010050106,0.041895274,1.4371696,1.3118368,0.4970075,-0.5106628,0.01776818,99.7061,0.1,0.350936,0.3895334,0.13926691,0.10350618,inf,inf,inf,inf,1,1,1,1,3,1,3,2,4,1,1,1,0
480872586,480871377,31044075,49.078753500000005,2.2543773,-0.91199726,-2.1649647,2.2688131,-0.0069100135,-0.00015225113,0.25713933,-0.008636862,-0.01636488,0.04335498,0.054333147,-0.036898524,0.010050106,0.041895274,1.7054071,-2.4591799,2.6251154,-0.51064664,0.01776818,99.7061,0.1,0.35173365,0.39019376,0.1397021,0.103694364,inf,inf,inf,inf,1,1,1,1,3,1,3,2,4,1,1,1,0
480883011,480881382,31044075,49.078753500000005,2.2543773,-0.9114687,-2.1654522,2.268641,-0.0069100135,-0.00015225113,0.25713933,-0.012810336,0.002717426,0.031113673,0.041431602,-0.036898524,0.010050106,0.041895274,-1.2951145,2.9592535,-0.2973885,-0.5106216,0.01776818,99.7061,0.1,0.35253587,0.39085627,0.14024913,0.10388341,inf,inf,inf,inf,1,1,1,1,3,1,3,2,4,1,1,1,0
480892482,480891390,31044075,49.078753500000005,2.2543773,-0.91095346,-2.1658854,2.2684937,-0.0069100135,-0.00015225113,0.25713933,-0.011307523,-0.008744306,0.023977824,0.033660006,-0.036898524,0.010050106,0.041895274,-1.5421946,-0.1127666,-4.076578,-0.5105073,0.01776818,99.7061,0.1,0.353343,0.39152095,0.14081502,0.1040689,inf,inf,inf,inf,1,1,1,1,3,1,3,2,4,1,1,1,0
480903253,480901397,31044075,49.078753500000005,2.2543773,-0.91047645,-2.1662736,2.2681756,-0.0069100135,-0.00015225113,0.25713933,-0.0025145898,-0.0035269072,0.04322081,0.052149467,-0.036898524,0.010050106,0.041895274,2.1074347,-0.7651374,2.8117752,-0.5101325,0.01776818,99.7061,0.1,0.35415515,0.3897486,0.141286,0.103991784,inf,inf,inf,inf,1,1,1,1,3,1,3,2,4,1,1,1,0
480912737,480911404,31044075,49.078753500000005,2.2543773,-0.9099927,-2.1666543,2.2678702,-0.0069100135,-0.00015225113,0.25713933,-0.011232481,-0.0012029464,0.031824354,0.040028512,-0.036898524,0.010050106,0.041895274,-0.44013312,0.6308124,1.7152059,-0.5105598,0.01776818,99.7061,0.1,0.35497206,0.39041346,0.14182454,0.10418127,inf,inf,inf,inf,1,1,1,1,3,1,3,2,4,1,1,1,0
480923171,480921413,31044075,49.078753500000005,2.2543773,-0.90952116,-2.1669858,2.267634,-0.0069100135,-0.00015225113,0.25713933,-0.012599713,0.0031080677,0.023581166,0.031089038,-0.036898524,0.010050106,0.041895274,-1.9324517,0.7369947,-3.8970482,-0.5105246,0.01776818,99.7061,0.1,0.3557939,0.3910805,0.14238639,0.104367144,inf,inf,inf,inf,1,1,1,1,3,1,3,2,4,1,1,1,0
480932749,480931421,31044075,49.078753500000005,2.2543773,-0.90905225,-2.1672933,2.267357,-0.0069100135,-0.00015225113,0.25713933,-0.0003195695,-0.0007009037,0.03795173,0.04479045,-0.036898524,0.010050106,0.041895274,1.0331024,-0.33387297,1.8912748,-0.51028657,0.01776818,99.7061,0.1,0.35662085,0.3917497,0.14288686,0.10455665,inf,inf,inf,inf,1,1,1,1,3,1,3,2,4,1,1,1,0
480943159,480941427,31044075,49.078753500000005,2.2543773,-0.9085932,-2.1675224,2.2671232,-0.0069100135,-0.00015225113,0.25713933,0.0018969518,0.004355995,0.03670631,0.04290201,-0.036898524,0.010050106,0.041895274,2.8496487,-1.841216,1.9944047,-0.51077557,0.01776818,99.7061,0.1,0.35745263,0.3924211,0.14342962,0.10474502,inf,inf,inf,inf,1,1,1,1,3,1,3,2,4,1,1,1,0
480952988,480951435,31044075,49.078753500000005,2.2543773,-0.9080921,-2.1677442,2.2668922,-0.0069100135,-0.00015225113,0.25713933,-0.008215277,0.019939432,0.026374204,0.031906143,-0.036898524,0.010050106,0.041895274,-2.199583,3.476612,-2.3834765,-0.5108181,0.01776818,99.7061,0.1,0.3582895,0.39063862,0.14394753,0.10466316,inf,inf,inf,inf,1,1,1,1,3,1,3,2,4,1,1,1,0
480963214,480961444,31044075,49.078753500000005,2.2543773,-0.9075865,-2.167888,2.266692,-0.0069100135,-0.00015225113,0.25713933,-0.0024883396,0.005228788,0.03631479,0.041209664,-0.036898524,0.010050106,0.041895274,-2.2897842,-1.9996101,-0.9718282,-0.51073074,0.01776818,99.7061,0.1,0.35913134,0.39131016,0.14453931,0.1048503,inf,inf,inf,inf,1,1,1,1,3,1,3,2,4,1,1,1,0
480972805,480971455,31044075,49.078753500000005,2.2543773,-0.9071055,-2.167968,2.266496,-0.0069100135,-0.00015225113,0.25713933,0.014492585,0.025327165,0.050331052,0.054614566,-0.036898524,0.010050106,0.041895274,3.834826,0.58149683,4.7377357,-0.51089704,0.01776818,99.7061,0.1,0.3599784,0.3919839,0.14502785,0.10503958,inf,inf,inf,inf,1,1,1,1,3,1,3,2,4,1,1,1,0
480983324,480981457,31044075,49.078753500000005,2.2543773,-0.90663725,-2.1680398,2.2663565,-0.0069100135,-0.00015225113,0.25713933,0.0012651182,0.023709953,0.029899493,0.03359649,-0.036898524,0.010050106,0.041895274,1.6494945,2.1309707,-1.4696685,-0.5112203,0.01776818,99.7061,0.1,0.3608304,0.39265984,0.14556251,0.10522886,inf,inf,inf,inf,1,1,1,1,3,1,3,2,4,1,1,1,0
480992818,480991465,31044075,49.078753500000005,2.2543773,-0.9061217,-2.1680136,2.2662337,-0.0069100135,-0.00015225113,0.25713933,-0.0057407906,0.020684373,0.033631872,0.03676628,-0.036898524,0.010050106,0.041895274,-4.2032,-2.3625865,-2.343304,-0.5113367,0.01776818,99.7061,0.1,0.3616875,0.39333797,0.14614747,0.105415426,inf,inf,inf,inf,1,1,1,1,3,1,3,2,4,1,1,1,0
481003654,481001473,31044075,49.078753500000005,2.2543773,-0.9056239,-2.16798,2.2660904,-0.0069100135,-0.00015225113,0.25713933,0.019644339,0.036458414,0.04564024,0.048231687,-0.036898524,0.010050106,0.041895274,2.8726172,2.243807,2.8301418,-0.5114145,0.01776818,99.7061,0.1,0.3625499,0.39154497,0.14671686,0.10533013,inf,inf,inf,inf,1,1,1,1,3,1,3,2,4,1,1,1,0
481012788,481011481,31044075,49.078753500000005,2.2543773,-0.90517193,-2.1679015,2.265969,-0.0069100135,-0.00015225113,0.25713933,0.011423766,0.02637904,0.029914876,0.031985804,-0.036898524,0.010050106,0.041895274,4.3460326,-0.611141,-0.89756215,-0.5118546,0.01776818,99.7061,0.1,0.36341754,0.3922232,0.14719227,0.1055187,inf,inf,inf,inf,1,1,1,1,3,1,3,2,4,1,1,1,0
481023487,481021488,31044075,49.078753500000005,2.2543773,-0.9046336,-2.1677969,2.2658541,-0.0069100135,-0.00015225113,0.25713933,-0.008064946,0.03224338,0.032915164,0.0344873,-0.036898524,0.010050106,0.041895274,-6.2019467,-0.480836,-1.104557,-0.5121062,0.01776818,99.7061,0.1,0.36429012,0.3929037,0.14778027,0.10570762,inf,inf,inf,inf,1,1,1,1,3,1,3,2,4,1,1,1,0
481032831,481031495,31044075,49.078753500000005,2.2543773,-0.9041297,-2.1676772,2.2657025,-0.0069100135,-0.00015225113,0.25713933,0.018865256,0.034218162,0.029959308,0.031053582,-0.036898524,0.010050106,0.041895274,0.7790306,0.50043464,0.24946919,-0.5122076,0.01776818,99.7061,0.1,0.3651681,0.39358634,0.14835884,0.10589643,inf,inf,inf,inf,1,1,1,1,3,1,3,2,4,1,1,1,0
481043121,481041503,31044075,49.078753500000005,2.2543773,-0.90367246,-2.1675246,2.2656069,-0.0069100135,-0.00015225113,0.25713933,0.0153400535,0.041128308,0.038103122,0.03873976,-0.036898524,0.010050106,0.041895274,3.8370836,1.8446794,0.74380094,-0.5123941,0.01776818,99.7061,0.1,0.3660514,0.39427122,0.14885713,0.10608641,inf,inf,inf,inf,1,1,1,1,3,1,3,2,4,1,1,1,0
481053818,481051510,31044075,49.078753500000005,2.2543773,-0.90301156,-2.1679525,2.2652292,-0.0069100135,-0.00015225113,0.25713933,-0.00021520493,0.0289841,0.033196688,0.033123318,-0.036898524,0.010050106,0.041895274,-2.2930954,-1.0262479,1.5350235,-0.512728,0.01776818,99.7061,0.1,0.35019958,0.39055535,0.13971813,0.103430055,inf,inf,inf,inf,1,1,1,1,3,1,3,2,4,1,1,1,0
481063191,481061518,31044075,49.078753500000005,2.2543773,-0.90238714,-2.1683018,2.2648523,-0.0069100135,-0.00015225113,0.25713933,0.00066725316,0.036191557,0.025925849,0.025097916,-0.036898524,0.010050106,0.041895274,-2.8609152,-2.0512674,-3.3114002,-0.51310456,0.01776818,99.7061,0.1,0.3509896,0.3887944,0.14028703,0.10335489,inf,inf,inf,inf,1,1,1,1,3,1,3,2,4,1,1,1,0
481073286,481071526,31044075,49.078753500000005,2.2543773,-0.9017944,-2.1687055,2.2644796,-0.0069100135,-0.00015225113,0.25713933,0.015341346,0.04634173,0.042039122,0.04048976,-0.036898524,0.010050106,0.041895274,2.1311684,4.8915462,1.4835094,-0.51312906,0.01776818,99.7061,0.1,0.35178465,0.3894527,0.14078806,0.10354453,inf,inf,inf,inf,1,1,1,1,3,1,3,2,4,1,1,1,0
481082906,481081533,31044075,49.078753500000005,2.2543773,-0.9012788,-2.169045,2.264093,-0.0069100135,-0.00015225113,0.25713933,0.007904887,0.01542159,0.031051306,0.028812313,-0.036898524,0.010050106,0.041895274,3.8986404,-4.971914,1.4009628,-0.5134925,0.01776818,99.7061,0.1,0.35258448,0.3901132,0.141277,0.1037303,inf,inf,inf,inf,1,1,1,1,3,1,3,2,4,1,1,1,0
481093671,481091729,31044075,49.078753500000005,2.2543773,-0.9007483,-2.1693487,2.2637572,-0.0069100135,-0.00015225113,0.25713933,-0.019800456,0.044325836,0.025111893,0.022214066,-0.036898524,0.010050106,0.041895274,-6.1972203,0.44538504,-2.3610685,-0.5141822,0.01776818,99.7061,0.1,0.35338908,0.39077583,0.14188598,0.10391851,inf,inf,inf,inf,1,1,1,1,3,1,3,2,4,1,1,1,0
481103225,481101692,31044075,49.078753500000005,2.2543773,-0.9002686,-2.1696827,2.2634296,-0.0069100135,-0.00015225113,0.25713933,0.0028685918,0.03870439,0.030488102,0.026961125,-0.036898524,0.010050106,0.041895274,-0.9434356,3.4741883,-1.2318907,-0.5145213,0.01776818,99.7061,0.1,0.3541989,0.3914406,0.14241357,0.104107045,inf,inf,inf,inf,1,1,1,1,3,1,3,2,4,1,1,1,0
481113687,481111660,31044075,49.078753500000005,2.2543773,-0.89988995,-2.1699686,2.2631729,-0.0069100135,-0.00015225113,0.25713933,-0.0014370448,0.026245527,0.03339266,0.029338991,-0.036898524,0.010050106,0.041895274,3.5373983,-1.836134,1.1568059,-0.51471406,0.01776818,99.7061,0.1,0.35501373,0.38966987,0.14291479,0.104028024,inf,inf,inf,inf,1,1,1,1,3,1,3,2,4,1,1,1,0
481123299,481121608,31044075,49.078753500000005,2.2543773,-0.89949524,-2.17023,2.2629187,-0.0069100135,-0.00015225113,0.25713933,-0.01988923,0.03218403,0.028210772,0.0236548,-0.036898524,0.010050106,0.041895274,-3.453309,-1.4163948,0.49419236,-0.5156157,0.01776818,99.7061,0.1,0.35583338,0.3903348,0.14351325,0.10421765,inf,inf,inf,inf,1,1,1,1,3,1,3,2,4,1,1,1,0
481133456,481131570,31044075,49.078753500000005,2.2543773,-0.89916754,-2.170463,2.2627113,-0.0069100135,-0.00015225113,0.25713933,-0.013447015,0.040739253,0.026800679,0.021765895,-0.036898524,0.010050106,0.041895274,-1.3822808,1.4472177,-1.7027297,-0.51595986,0.01776818,99.7061,0.1,0.35665828,0.39100197,0.14404857,0.104405485,inf,inf,inf,inf,1,1,1,1,3,1,3,2,4,1,1,1,0
481143273,481141580,31044075,49.078753500000005,2.2543773,-0.8988887,-2.1707163,2.262484,-0.0069100135,-0.00015225113,0.25713933,-0.015739918,0.030379862,0.026530886,0.021039918,-0.036898524,0.010050106,0.041895274,-0.1008638,0.8854084,-0.39699477,-0.5161097,0.01776818,99.7061,0.1,0.35748827,0.39167127,0.1446069,0.104594246,inf,inf,inf,inf,1,1,1,1,3,1,3,2,4,1,1,1,0
481153468,481151588,31044075,49.078753500000005,2.2543773,-0.898651,-2.1709242,2.2622662,-0.0069100135,-0.00015225113,0.25713933,-0.0140291685,0.022088379,0.032843374,0.026918057,-0.036898524,0.010050106,0.041895274,1.4872324,-3.6212156,1.7175828,-0.51688236,0.01776818,99.7061,0.1,0.3583234,0.39234278,0.14512774,0.10478229,inf,inf,inf,inf,1,1,1,1,3,1,3,2,4,1,1,1,0
481163327,481161596,31044075,49.078753500000005,2.2543773,-0.89847994,-2.1711915,2.261978,-0.0069100135,-0.00015225113,0.25713933,-0.034897793,0.035244733,0.022836044,0.016430793,-0.036898524,0.010050106,0.041895274,-2.4697983,2.6286998,0.22333996,-0.5172275,0.01776818,99.7061,0.10017204,0.35916352,0.39056185,0.14569505,0.104701936,inf,inf,inf,inf,1,1,1,1,3,1,3,2,4,1,1,1,0
481173563,481171604,31044075,49.078753500000005,2.2543773,-0.89830667,-2.1714494,2.26171,-0.0069100135,-0.00015225113,0.25713933,-0.026407236,0.017328368,0.015798835,0.008937008,-0.036898524,0.010050106,0.041895274,-2.694582,-1.1992902,-3.1268063,-0.5176973,0.01776818,99.7061,0.100440025,0.3600089,0.3912335,0.14627299,0.10489027,inf,inf,inf,inf,1,1,1,1,3,1,3,2,4,1,1,1,0
481182972,481181612,31044075,49.078753500000005,2.2543773,-0.89825016,-2.1717086,2.2614453,-0.0069100135,-0.00015225113,0.25713933,-0.01700492,0.022512076,0.035986777,0.028690819,-0.036898524,0.010050106,0.041895274,5.196479,-0.50546837,2.7369723,-0.5177477,0.01776818,99.7061,0.10070467,0.36085957,0.39190733,0.14677057,0.10507848,inf,inf,inf,inf,1,1,1,1,3,1,3,2,4,1,1,1,0
481193000,481191623,31044075,49.078753500000005,2.2543773,-0.8981896,-2.1719892,2.2612002,-0.0069100135,-0.00015225113,0.25713933,-0.044579778,0.016236804,0.024551759,0.016843421,-0.036898524,0.010050106,0.041895274,-2.5631244,-0.40049762,1.2819979,-0.51857334,0.01776818,99.7061,0.100949764,0.36171526,0.39258337,0.1473643,0.10527138,inf,inf,inf,inf,1,1,1,1,3,1,3,2,4,1,1,1,0
481202995,481201628,31044075,49.078753500000005,2.2543773,-0.89813423,-2.1722558,2.2610273,-0.0069100135,-0.00015225113,0.25713933,-0.037244685,0.019139547,0.019383745,0.011283774,-0.036898524,0.010050106,0.041895274,-3.4862313,-0.16309331,-3.7581384,-0.5188371,0.01776818,99.7061,0.10112262,0.36257628,0.39326164,0.14794978,0.105457395,inf,inf,inf,inf,1,1,1,1,3,1,3,2,4,1,1,1,0
481212795,481211640,31044075,49.078753500000005,2.2543773,-0.89815074,-2.172553,2.2608306,-0.0069100135,-0.00015225113,0.25713933,-0.02424068,0.014837795,0.035974067,0.027502557,-0.036898524,0.010050106,0.041895274,3.4493275,0.8758739,2.1760652,-0.51887643,0.01776818,99.7061,0.10131931,0.36344275,0.3939421,0.14848788,0.105647765,inf,inf,inf,inf,1,1,1,1,3,1,3,2,4,1,1,1,0
481223438,481221647,31044075,49.078753500000005,2.2543773,-0.8981603,-2.1727924,2.2605968,-0.0069100135,-0.00015225113,0.25713933,-0.030892402,0.010105996,0.022999357,0.014151684,-0.036898524,0.010050106,0.041895274,2.2350562,-2.6810253,1.1120042,-0.51947784,0.01776818,99.7061,0.1015532,0.3643144,0.39214003,0.14903662,0.10556105,inf,inf,inf,inf,1,1,1,1,3,1,3,2,4,1,1,1,0
481232803,481231647,31044075,49.078753500000005,2.2543773,-0.8981546,-2.1730876,2.2603884,-0.0069100135,-0.00015225113,0.25713933,-0.046004124,0.018891199,0.018221626,0.009017506,-0.036898524,0.010050106,0.041895274,-4.02585,2.231983,-2.0168052,-0.51965106,0.01776818,99.7061,0.10176158,0.36519137,0.39282063,0.14961556,0.105750166,inf,inf,inf,inf,1,1,1,1,3,1,3,2,4,1,1,1,0
481244141,481241657,31044075,49.078753500000005,2.2543773,-0.8976227,-2.173627,2.2600951,-0.0069100135,-0.00015225113,0.25713933,-0.028505666,0.010327673,0.01862745,0.0090003945,-0.036898524,0.010050106,0.041895274,-0.47583175,-0.76195085,-1.7439011,-0.5198303,0.01776818,99.7061,0.102054834,0.34951374,0.3891704,0.14039281,0.103120126,inf,inf,inf,inf,1,1,1,1,3,1,3,2,4,1,1,1,0
481252864,481251662,31044075,49.078753500000005,2.2543773,-0.8971931,-2.1741552,2.2597976,-0.0069100135,-0.00015225113,0.25713933,-0.028700529,0.018568506,0.032314233,0.022286361,-0.036898524,0.010050106,0.041895274,4.2519784,1.4293818,3.223692,-0.51995987,0.01776818,99.7061,0.10235238,0.3502975,0.38982666,0.14093775,0.10330944,inf,inf,inf,inf,1,1,1,1,3,1,3,2,4,1,1,1,0
481263198,481261670,31044075,49.078753500000005,2.2543773,-0.8967692,-2.1746397,2.2595189,-0.0069100135,-0.00015225113,0.25713933,-0.04669098,0.00771345,0.020873835,0.010466477,-0.036898524,0.010050106,0.041895274,-1.894954,-1.9625382,1.091212,-0.5206779,0.01776818,99.7061,0.10263109,0.35108623,0.39048508,0.14146213,0.10349867,inf,inf,inf,inf,1,1,1,1,3,1,3,2,4,1,1,1,0
481272977,481271677,31044075,49.078753500000005,2.2543773,-0.8963873,-2.1751013,2.2592683,-0.0069100135,-0.00015225113,0.25713933,-0.04456085,0.02084471,0.01207604,0.001276156,-0.036898524,0.010050106,0.041895274,-2.38694,0.91203743,-4.466519,-0.5208636,0.01776818,99.7061,0.10288167,0.3518799,0.3887257,0.14204407,0.1034246,inf,inf,inf,inf,1,1,1,1,3,1,3,2,4,1,1,1,0
481283213,481281686,31044075,49.078753500000005,2.2543773,-0.89605325,-2.175578,2.2589455,-0.0069100135,-0.00015225113,0.25713933,-0.031227367,0.013139423,0.03223974,0.021068633,-0.036898524,0.010050106,0.041895274,2.6453278,1.4007878,4.137262,-0.5211918,0.01776818,99.7061,0.10320449,0.3526787,0.38938433,0.14261653,0.103615195,inf,inf,inf,inf,1,1,1,1,3,1,3,2,4,1,1,1,0
481292840,481291693,31044075,49.078753500000005,2.2543773,-0.8957594,-2.1759965,2.2586484,-0.0069100135,-0.00015225113,0.25713933,-0.03550798,0.009417371,0.012842416,0.0013205241,-0.036898524,0.010050106,0.041895274,3.5566795,-2.0259807,-0.038559377,-0.5215774,0.01776818,99.7061,0.10350156,0.35348263,0.3900451,0.14309844,0.1038033,inf,inf,inf,inf,1,1,1,1,3,1,3,2,4,1,1,1,0
481303103,481301700,31044075,49.078753500000005,2.2543773,-0.8954436,-2.1764643,2.258382,-0.0069100135,-0.00015225113,0.25713933,-0.052933875,0.012517184,0.017073128,0.0052201375,-0.036898524,0.010050106,0.041895274,-3.8384073,1.2901976,-1.224784,-0.5220703,0.01776818,99.7061,0.10376787,0.3542914,0.3907081,0.14369063,0.103992745,inf,inf,inf,inf,1,1,1,1,3,1,3,2,4,1,1,1,0
481312842,481311707,31044075,49.078753500000005,2.2543773,-0.8951778,-2.1768663,2.2581227,-0.0069100135,-0.00015225113,0.25713933,-0.038715255,0.008201557,0.018329715,0.006164588,-0.036898524,0.010050106,0.041895274,-0.3502174,-1.5653577,-0.2567129,-0.5225062,0.01776818,99.7061,0.10402727,0.35510543,0.39137322,0.14426163,0.10418129,inf,inf,inf,inf,1,1,1,1,3,1,3,2,4,1,1,1,0
481323563,481321716,31044075,49.078753500000005,2.2543773,-0.894972,-2.1773176,2.257772,-0.0069100135,-0.00015225113,0.25713933,-0.037963282,0.01379605,0.019744959,0.0071777306,-0.036898524,0.010050106,0.041895274,2.969976,2.440416,0.27492303,-0.5225515,0.01776818,99.7061,0.104377985,0.35592467,0.389604,0.14476006,0.10410504,inf,inf,inf,inf,1,1,1,1,3,1,3,2,4,1,1,1,0
481332840,481331722,31044075,49.078753500000005,2.2543773,-0.89474225,-2.1777086,2.2574136,-0.0069100135,-0.00015225113,0.25713933,-0.050182164,-0.00017857934,0.016455533,0.0035085755,-0.036898524,0.010050106,0.041895274,-2.251142,-2.9618945,0.5183925,-0.5233538,0.01776818,99.7061,0.10473633,0.35674885,0.39026934,0.14536156,0.10429469,inf,inf,inf,inf,1,1,1,1,3,1,3,2,4,1,1,1,0
481343451,481341730,31044075,49.078753500000005,2.2543773,-0.8945479,-2.1780815,2.2571015,-0.0069100135,-0.00015225113,0.25713933,-0.046062022,0.019726211,0.017779658,0.004474461,-0.036898524,0.010050106,0.041895274,-1.6931425,1.6524663,-0.6442051,-0.5236367,0.01776818,99.7061,0.10504842,0.35757843,0.39093685,0.14593677,0.10448289,inf,inf,inf,inf,1,1,1,1,3,1,3,2,4,1,1,1,0
481353019,481351919,31044075,49.078753500000005,2.2543773,-0.89438725,-2.1784582,2.2567885,-0.0069100135,-0.00015225113,0.25713933,-0.043836504,0.005060989,0.014940615,0.0012980466,-0.036898524,0.010050106,0.041895274,-0.41248327,0.17995466,-0.62451285,-0.5239284,0.01776818,99.7061,0.10536146,0.35841328,0.39160654,0.14649464,0.10467318,inf,inf,inf,inf,1,1,1,1,3,1,3,2,4,1,1,1,0
481363171,481361880,31044075,49.078753500000005,2.2543773,-0.8942179,-2.1787975,2.2564986,-0.0069100135,-0.00015225113,0.25713933,-0.03357497,0.01146084,0.022577653,0.008617668,-0.036898524,0.010050106,0.041895274,2.4134986,-0.29385552,1.0086584,-0.52404565,0.01776818,99.7061,0.10565138,0.35925338,0.3922784,0.14700885,0.10486161,inf,inf,inf,inf,1,1,1,1,3,1,3,2,4,1,1,1,0
481373135,481371844,31044075,49.078753500000005,2.2543773,-0.8940901,-2.1791263,2.2561877,-0.0069100135,-0.00015225113,0.25713933,-0.050611198,0.012555004,0.024367556,0.010109353,-0.036898524,0.010050106,0.041895274,-0.7150804,0.86399424,3.8549454,-0.52469105,0.01776818,99.7061,0.10596228,0.36009857,0.39295244,0.14761207,0.1050523,inf,inf,inf,inf,1,1,1,1,3,1,3,2,4,1,1,1,0
481383095,481381804,31044075,49.078753500000005,2.2543773,-0.89394224,-2.1794088,2.2559235,-0.0069100135,-0.00015225113,0.25713933,-0.043124728,0.012737434,0.0075355447,-0.0070784683,-0.036898524,0.010050106,0.041895274,-1.762811,-0.22047332,-5.510312,-0.5249441,0.01776818,99.7061,0.106226444,0.36094922,0.39116266,0.1482066,0.10496753,inf,inf,inf,inf,1,1,1,1,3,1,3,2,4,1,1,1,0
481393156,481391769,31044075,49.078753500000005,2.2543773,-0.89383715,-2.1796584,2.2556314,-0.0069100135,-0.00015225113,0.25713933,-0.038169593,0.018117672,0.03340238,0.018453797,-0.036898524,0.010050106,0.041895274,1.6144102,0.8168876,2.5006275,-0.5250081,0.01776818,99.7061,0.10651851,0.36180532,0.39183685,0.14870216,0.10515808,inf,inf,inf,inf,1,1,1,1,3,1,3,2,4,1,1,1,0
481402903,481401776,31044075,49.078753500000005,2.2543773,-0.8937194,-2.1798632,2.2553554,-0.0069100135,-0.00015225113,0.25713933,-0.037016045,0.012370479,0.01890219,0.0036395127,-0.036898524,0.010050106,0.041895274,1.4022431,-1.6328932,0.84598154,-0.5256432,0.01776818,99.7061,0.106794596,0.36266655,0.39251325,0.14933687,0.10534825,inf,inf,inf,inf,1,1,1,1,3,1,3,2,4,1,1,1,0
481413187,481411783,31044075,49.078753500000005,2.2543773,-0.89362836,-2.1800444,2.255112,-0.0069100135,-0.00015225113,0.25713933,-0.054812502,0.023354687,0.014300526,-0.0012566283,-0.036898524,0.010050106,0.041895274,-3.444456,0.76468134,-2.7319684,-0.5259386,0.01776818,99.7061,0.10703802,0.36353344,0.39319187,0.14989184,0.105537735,inf,inf,inf,inf,1,1,1,1,3,1,3,2,4,1,1,1,0
481422972,481421791,31044075,49.078753500000005,2.2543773,-0.89350194,-2.1802192,2.2547953,-0.0069100135,-0.00015225113,0.25713933,-0.036294434,0.018617991,0.017549707,0.0017171123,-0.036898524,0.010050106,0.041895274,-1.7456228,0.6896699,1.3019515,-0.5259968,0.01776818,99.7061,0.10735464,0.3644057,0.39387268,0.1504569,0.10572811,inf,inf,inf,inf,1,1,1,1,3,1,3,2,4,1,1,1,0
481434238,481431798,31044075,49.078753500000005,2.2543773,-0.8934138,-2.180767,2.25409,-0.0069100135,-0.00015225113,0.25713933,-0.030061599,0.017848728,0.007787643,-0.008716229,-0.036898524,0.010050106,0.041895274,5.2238874,-0.35445732,-1.1703415,-0.52614814,0.01776818,99.7061,0.10805988,0.34885985,0.38780516,0.14112023,0.102843635,inf,inf,inf,inf,1,1,1,1,3,1,3,2,4,1,1,1,0
481442966,481441805,31044075,49.078753500000005,2.2543773,-0.89329207,-2.1813211,2.2534215,-0.0069100135,-0.00015225113,0.25713933,-0.051212806,0.017836984,0.016876737,-0.00026280625,-0.036898524,0.010050106,0.041895274,-2.5663784,0.75416934,0.2312,-0.5265873,0.01776818,99.7061,0.10872841,0.3496384,0.38845766,0.14168276,0.103033334,inf,inf,inf,inf,1,1,1,1,3,1,3,2,4,1,1,1,0
481453359,481451813,31044075,49.078753500000005,2.2543773,-0.89319634,-2.1818488,2.2527723,-0.0069100135,-0.00015225113,0.25713933,-0.041905653,0.0076638004,0.016494228,-0.0012466186,-0.036898524,0.010050106,0.041895274,-1.6014144,-2.3729775,1.2728482,-0.5265383,0.01776818,99.7061,0.10937762,0.35042205,0.38911232,0.14223042,0.10321937,inf,inf,inf,inf,1,1,1,1,3,1,3,2,4,1,1,1,0
481462933,481461821,31044075,49.078753500000005,2.2543773,-0.893078,-2.18238,2.252182,-0.0069100135,-0.00015225113,0.25713933,-0.030127661,0.020209556,0.012594737,-0.0057143234,-0.036898524,0.010050106,0.041895274,1.292696,1.5241866,-1.282695,-0.52650774,0.01776818,99.7061,0.10996795,0.35121077,0.3897691,0.14279959,0.10340927,inf,inf,inf,inf,1,1,1,1,3,1,3,2,4,1,1,1,0
481473383,481471828,31044075,49.078753500000005,2.2543773,-0.89295024,-2.1829052,2.2516413,-0.0069100135,-0.00015225113,0.25713933,-0.024751347,0.013538012,0.0216457,0.0028003606,-0.036898524,0.010050106,0.041895274,3.1399004,1.4228593,0.050000805,-0.526299,0.01776818,99.7061,0.11050868,0.35200468,0.39042804,0.1433276,0.103596926,inf,inf,inf,inf,1,1,1,1,3,1,3,2,4,1,1,1,0
481482956,481481837,31044075,49.078753500000005,2.2543773,-0.8927754,-2.1833618,2.2511246,-0.0069100135,-0.00015225113,0.25713933,-0.039587267,0.0066187936,0.026278077,0.006927135,-0.036898524,0.010050106,0.041895274,-3.2156856,-3.1466825,2.4801946,-0.526546,0.01776818,99.7061,0.11102533,0.3528036,0.3910891,0.14387783,0.103785224,inf,inf,inf,inf,1,1,1,1,3,1,3,2,4,1,1,1,0
481493762,481491844,31044075,49.078753500000005,2.2543773,-0.8925797,-2.1838048,2.250601,-0.0069100135,-0.00015225113,0.25713933,-0.018971048,0.021666896,0.018312179,-0.0016048593,-0.036898524,0.010050106,0.041895274,-0.032624662,0.9859611,-1.9599278,-0.52634543,0.01776818,99.7061,0.1115489,0.35360765,0.38932124,0.14448987,0.10371057,inf,inf,inf,inf,1,1,1,1,3,1,3,2,4,1,1,1,0
481502978,481501851,31044075,49.078753500000005,2.2543773,-0.8924078,-2.1842232,2.2500846,-0.0069100135,-0.00015225113,0.25713933,-0.017549837,0.021133326,0.02923739,0.008786756,-0.036898524,0.010050106,0.041895274,2.8887172,2.1936526,1.2379665,-0.5261624,0.01776818,99.7061,0.112065315,0.35441712,0.38998252,0.1449618,0.10389859,inf,inf,inf,inf,1,1,1,1,3,1,3,2,4,1,1,1,0
481513259,481511858,31044075,49.078753500000005,2.2543773,-0.8921722,-2.1846118,2.2496433,-0.0069100135,-0.00015225113,0.25713933,-0.021408133,0.012367637,0.024546074,0.0035931503,-0.036898524,0.010050106,0.041895274,-1.1618838,-0.91377014,-1.0144767,-0.5259778,0.01776818,99.7061,0.11250663,0.3552315,0.39064595,0.14557093,0.1040879,inf,inf,inf,inf,1,1,1,1,3,1,3,2,4,1,1,1,0
481523088,481521866,31044075,49.078753500000005,2.2543773,-0.8919227,-2.1849754,2.249189,-0.0069100135,-0.00015225113,0.25713933,-0.012241306,0.011214629,0.03435652,0.012931368,-0.036898524,0.010050106,0.041895274,0.04772621,-2.3681989,2.8484666,-0.525742,0.01776818,99.7061,0.112961054,0.3560513,0.3913116,0.14614952,0.10427544,inf,inf,inf,inf,1,1,1,1,3,1,3,2,4,1,1,1,0
481533233,481531874,31044075,49.078753500000005,2.2543773,-0.89162266,-2.1853452,2.2487953,-0.0069100135,-0.00015225113,0.25713933,-0.003906661,0.025077064,0.01820735,-0.0036609191,-0.036898524,0.010050106,0.041895274,0.79215974,2.7136629,-2.4948466,-0.52526075,0.01776818,99.7061,0.1,0.35687643,0.39197937,0.14670144,0.10446477,inf,inf,inf,inf,1,1,1,1,3,1,3,2,4,1,1,1,0
481543257,481541881,31044075,49.078753500000005,2.2543773,-0.89131165,-2.1857119,2.2482307,-0.0069100135,-0.00015225113,0.25713933,-0.0044588516,0.014882578,0.028434413,0.005932945,-0.036898524,0.010050106,0.041895274,0.7165359,1.6267457,-1.9407611,-0.5245937,0.01776818,99.7061,0.1,0.35770684,0.39020157,0.14714664,0.10438364,inf,inf,inf,inf,1,1,1,1,3,1,3,2,4,1,1,1,0
481553004,481551890,31044075,49.078753500000005,2.2543773,-0.8909639,-2.186038,2.2476447,-0.0069100135,-0.00015225113,0.25713933,-0.0017648726,0.0022654335,0.035564415,0.012466209,-0.036898524,0.010050106,0.041895274,-0.48917934,-4.051285,3.2023938,-0.52434176,0.01776818,99.7061,0.1,0.35854265,0.39086953,0.14753067,0.10457048,inf,inf,inf,inf,1,1,1,1,3,1,3,2,4,1,1,1,0
481563257,481561897,31044075,49.078753500000005,2.2543773,-0.8906274,-2.186339,2.2471094,-0.0069100135,-0.00015225113,0.25713933,0.0033666054,0.019661348,0.02275029,-0.00090943236,-0.036898524,0.010050106,0.041895274,1.2069443,-0.4761647,-0.7956729,-0.5242034,0.01776818,99.7061,0.1,0.3593836,0.3915397,0.14794604,0.10475853,inf,inf,inf,inf,1,1,1,1,3,1,3,2,4,1,1,1,0
481573006,481571904,31044075,49.078753500000005,2.2543773,-0.8902178,-2.1866498,2.2465966,-0.0069100135,-0.00015225113,0.25713933,0.004358861,0.026183471,0.026069382,0.0018820541,-0.036898524,0.010050106,0.041895274,-1.3324168,4.2981486,-0.9450508,-0.52367914,0.01776818,99.7061,0.1,0.3602299,0.39221206,0.14837411,0.10494416,inf,inf,inf,inf,1,1,1,1,3,1,3,2,4,1,1,1,0
481583247,481581912,31044075,49.078753500000005,2.2543773,-0.8898004,-2.186896,2.2461338,-0.0069100135,-0.00015225113,0.25713933,0.01807927,0.015550753,0.03267071,0.007988463,-0.036898524,0.010050106,0.041895274,2.2524588,-0.08791761,0.37374297,-0.5229106,0.01776818,99.7061,0.1,0.36108154,0.3928866,0.14875944,0.10513193,inf,inf,inf,inf,1,1,1,1,3,1,3,2,4,1,1,1,0
481593136,481591919,31044075,49.078753500000005,2.2543773,-0.88933253,-2.1870694,2.2456076,-0.0069100135,-0.00015225113,0.25713933,0.017078407,0.019103695,0.0414421,0.016154883,-0.036898524,0.010050106,0.041895274,0.8257238,-2.469046,1.7081363,-0.5229234,0.01776818,99.7061,0.1,0.3619384,0.39109853,0.14916143,0.105046846,inf,inf,inf,inf,1,1,1,1,3,1,3,2,4,1,1,1,0
481603272,481601927,31044075,49.078753500000005,2.2543773,-0.8888825,-2.1872406,2.245066,-0.0069100135,-0.00015225113,0.25713933,0.015530824,0.0321475,0.028690564,0.002834887,-0.036898524,0.010050106,0.041895274,0.5037902,2.2942526,0.49900848,-0.52263683,0.01776818,99.7061,0.1,0.36280048,0.39177322,0.1496059,0.105232485,inf,inf,inf,inf,1,1,1,1,3,1,3,2,4,1,1,1,0
481613193,481612112,31044075,49.078753500000005,2.2543773,-0.8883842,-2.1873355,2.2445636,-0.0069100135,-0.00015225113,0.25713933,0.010618353,0.029002532,0.016411979,-0.00997709,-0.036898524,0.010050106,0.041895274,-3.181932,0.5164015,-4.6560974,-0.522275,0.01776818,99.7061,0.1,0.36366805,0.3924501,0.14998727,0.10541981,inf,inf,inf,inf,1,1,1,1,3,1,3,2,4,1,1,1,0
481623478,481622074,31044075,49.078753500000005,2.2543773,-0.88793117,-2.1874342,2.2441149,-0.0069100135,-0.00015225113,0.25713933,0.030246945,0.028156519,0.046303697,0.019414982,-0.036898524,0.010050106,0.041895274,3.4696867,0.41049358,1.7137438,-0.52169335,0.01776818,99.7061,0.1,0.3645408,0.39312917,0.15042326,0.10560807,inf,inf,inf,inf,1,1,1,1,3,1,3,2,4,1,1,1,0
481633093,481632031,31044075,49.078753500000005,2.2543773,-0.88747346,-2.1874852,2.2436116,-0.0069100135,-0.00015225113,0.25713933,0.021466492,0.025685422,0.032460276,0.0051044207,-0.036898524,0.010050106,0.041895274,2.2234163,-1.8789072,3.883944,-0.5220167,0.01776818,99.7061,0.1,0.36541894,0.39381048,0.15080987,0.105795644,inf,inf,inf,inf,1,1,1,1,3,1,3,2,4,1,1,1,0
481644236,481641990,31044075,49.078753500000005,2.2543773,-0.88690925,-2.187609,2.2430425,-0.0069100135,-0.00015225113,0.25713933,0.009699571,0.034152914,0.018987639,-0.0089824535,-0.036898524,0.010050106,0.041895274,-3.5437467,0.8397521,-4.8470383,-0.5219603,0.01776818,99.7061,0.1,0.34969732,0.390141,0.14132175,0.10315917,inf,inf,inf,inf,1,1,1,1,3,1,3,2,4,1,1,1,0
481653256,481651964,31044075,49.078753500000005,2.2543773,-0.8863545,-2.1876855,2.2423992,-0.0069100135,-0.00015225113,0.25713933,0.020257466,0.02908481,0.03896531,0.01038741,-0.036898524,0.010050106,0.041895274,-1.6243824,-0.9631893,2.6718037,-0.5217626,0.01776818,99.7061,0.1,0.35048085,0.38838443,0.14169614,0.10308737,inf,inf,inf,inf,1,1,1,1,3,1,3,2,4,1,1,1,0
481663594,481661972,31044075,49.078753500000005,2.2543773,-0.88585895,-2.1877425,2.2418425,-0.0069100135,-0.00015225113,0.25713933,0.03149009,0.03760461,0.024018485,-0.005129437,-0.036898524,0.010050106,0.041895274,4.673337,0.8485103,-1.9299455,-0.5215877,0.01776818,99.7061,0.1,0.35126927,0.38903946,0.14208162,0.10327452,inf,inf,inf,inf,1,1,1,1,3,1,3,2,4,1,1,1,0
481673050,481671979,31044075,49.078753500000005,2.2543773,-0.88535494,-2.187769,2.2412848,-0.0069100135,-0.00015225113,0.25713933,0.009436027,0.033946786,0.03804938,0.008367875,-0.036898524,0.010050106,0.041895274,-1.6002128,-0.08827106,2.0058084,-0.5219198,0.01776818,99.7061,0.1,0.35206264,0.38969666,0.14253326,0.10345856,inf,inf,inf,inf,1,1,1,1,3,1,3,2,4,1,1,1,0
481683300,481681987,31044075,49.078753500000005,2.2543773,-0.88485885,-2.1877317,2.2407534,-0.0069100135,-0.00015225113,0.25713933,0.015622267,0.03253642,0.029412597,-0.0007675,-0.036898524,0.010050106,0.041895274,-2.1475794,-2.6915505,0.8608754,-0.5221482,0.01776818,99.7061,0.1,0.3528612,0.390356,0.14293292,0.10364381,inf,inf,inf,inf,1,1,1,1,3,1,3,2,4,1,1,1,0
481693229,481691994,31044075,49.078753500000005,2.2543773,-0.8843576,-2.1876602,2.2402956,-0.0069100135,-0.00015225113,0.25713933,0.022003531,0.0528567,0.027599474,-0.003045477,-0.036898524,0.010050106,0.041895274,-0.2316928,2.4994059,-2.413773,-0.5220431,0.01776818,99.7061,0.1,0.3536648,0.39101747,0.14332269,0.10383106,inf,inf,inf,inf,1,1,1,1,3,1,3,2,4,1,1,1,0
481703369,481702002,31044075,49.078753500000005,2.2543773,-0.8838876,-2.1875694,2.2397966,-0.0069100135,-0.00015225113,0.25713933,0.03028913,0.043620247,0.039895657,0.008775815,-0.036898524,0.010050106,0.041895274,3.750924,1.4206909,2.1709695,-0.5220748,0.01776818,99.7061,0.1,0.35447338,0.3892513,0.14370571,0.103753544,inf,inf,inf,inf,1,1,1,1,3,1,3,2,4,1,1,1,0
481713237,481712010,31044075,49.078753500000005,2.2543773,-0.88338935,-2.1874468,2.2393339,-0.0069100135,-0.00015225113,0.25713933,0.011482434,0.039403383,0.02541115,-0.0061505027,-0.036898524,0.010050106,0.041895274,-2.5796323,-1.4488405,-1.2487922,-0.5224481,0.01776818,99.7061,0.1,0.35528693,0.38991296,0.14416151,0.10393845,inf,inf,inf,inf,1,1,1,1,3,1,3,2,4,1,1,1,0
481723134,481722019,31044075,49.078753500000005,2.2543773,-0.88291967,-2.1873178,2.2388463,-0.0069100135,-0.00015225113,0.25713933,0.020221688,0.036395095,0.0316374,-0.00033414003,-0.036898524,0.010050106,0.041895274,-1.2044109,-2.48524,1.0607668,-0.52261937,0.01776818,99.7061,0.1,0.35610574,0.3905768,0.14462255,0.104125105,inf,inf,inf,inf,1,1,1,1,3,1,3,2,4,1,1,1,0
481733414,481732025,31044075,49.078753500000005,2.2543773,-0.8824724,-2.1871378,2.2383702,-0.0069100135,-0.00015225113,0.25713933,0.026582493,0.054747093,0.027341375,-0.005009545,-0.036898524,0.010050106,0.041895274,2.140774,1.1941413,0.8881584,-0.52273196,0.01776818,99.7061,0.1,0.35692984,0.39124283,0.14493608,0.10431184,inf,inf,inf,inf,1,1,1,1,3,1,3,2,4,1,1,1,0
481743111,481742033,31044075,49.078753500000005,2.2543773,-0.882051,-2.186984,2.23796,-0.0069100135,-0.00015225113,0.25713933,0.014846792,0.054400135,0.01966326,-0.013037627,-0.036898524,0.010050106,0.041895274,0.03483868,4.395967,-3.2722178,-0.5225897,0.01776818,99.7061,0.1,0.35775867,0.391911,0.14539662,0.10449861,inf,inf,inf,inf,1,1,1,1,3,1,3,2,4,1,1,1,0
481753709,481752040,31044075,49.078753500000005,2.2543773,-0.88162637,-2.186727,2.2374246,-0.0069100135,-0.00015225113,0.25713933,0.017998002,0.03635858,0.027682398,-0.005393612,-0.036898524,0.010050106,0.041895274,-0.7830773,-4.6950545,2.0632784,-0.52312046,0.01776818,99.7061,0.1,0.3585928,0.39013487,0.14585711,0.10441622,inf,inf,inf,inf,1,1,1,1,3,1,3,2,4,1,1,1,0
481763126,481762047,31044075,49.078753500000005,2.2543773,-0.8812455,-2.1864982,2.236938,-0.0069100135,-0.00015225113,0.25713933,0.021950664,0.05397624,0.025550622,-0.007870944,-0.036898524,0.010050106,0.041895274,2.0067172,0.34467214,1.2923784,-0.5233183,0.01776818,99.7061,0.1,0.35943222,0.39080322,0.14620568,0.10460371,inf,inf,inf,inf,1,1,1,1,3,1,3,2,4,1,1,1,0
481773599,481772055,31044075,49.078753500000005,2.2543773,-0.88084906,-2.186223,2.2364416,-0.0069100135,-0.00015225113,0.25713933,0.008955042,0.05866427,0.014009867,-0.019728879,-0.036898524,0.010050106,0.041895274,-2.3102865,2.1073172,-1.0523546,-0.52369,0.01776818,99.7061,0.1,0.36027655,0.39147377,0.14667538,0.10478991,inf,inf,inf,inf,1,1,1,1,3,1,3,2,4,1,1,1,0
481783136,481782062,31044075,49.078753500000005,2.2543773,-0.880502,-2.1859512,2.236052,-0.0069100135,-0.00015225113,0.25713933,0.013019863,0.053976424,0.023335146,-0.010693448,-0.036898524,0.010050106,0.041895274,-0.72468215,1.7428805,-2.7272067,-0.52353454,0.01776818,99.7061,0.1,0.36112624,0.39214653,0.14704613,0.10497716,inf,inf,inf,inf,1,1,1,1,3,1,3,2,4,1,1,1,0
481793458,481792070,31044075,49.078753500000005,2.2543773,-0.88015157,-2.1856825,2.235612,-0.0069100135,-0.00015225113,0.25713933,0.018411059,0.040765584,0.030598616,-0.00369362,-0.036898524,0.010050106,0.041895274,0.74547225,-2.2493916,3.3688176,-0.52373683,0.01776818,99.7061,0.1,0.36198094,0.39282146,0.14749594,0.10516462,inf,inf,inf,inf,1,1,1,1,3,1,3,2,4,1,1,1,0
481803162,481802078,31044075,49.078753500000005,2.2543773,-0.8798519,-2.185391,2.2352533,-0.0069100135,-0.00015225113,0.25713933,0.013127131,0.045509685,0.026891602,-0.007639112,-0.036898524,0.010050106,0.041895274,1.3874341,-2.6370485,0.49929136,-0.5242799,0.01776818,99.7061,0.1,0.36284095,0.3934986,0.1479239,0.10534993,inf,inf,inf,inf,1,1,1,1,3,1,3,2,4,1,1,1,0
481814968,481812085,31044075,49.078753500000005,2.2543773,-0.87948906,-2.1851258,2.2349794,-0.0069100135,-0.00015225113,0.25713933,0.009325457,0.059641395,0.020614944,-0.014043913,-0.036898524,0.010050106,0.041895274,-2.9721844,3.6116173,-0.8671346,-0.5242553,0.01776818,99.7061,0.1,0.36370614,0.39170158,0.14830324,0.10526313,inf,inf,inf,inf,1,1,1,1,3,1,3,2,4,1,1,1,0
481823232,481822093,31044075,49.078753500000005,2.2543773,-0.8791853,-2.1848304,2.2347448,-0.0069100135,-0.00015225113,0.25713933,0.01691062,0.047771417,0.022827387,-0.01194017,-0.036898524,0.010050106,0.041895274,0.976186,0.5878497,-1.6948026,-0.52412736,0.01776818,99.7061,0.1,0.3645764,0.39237884,0.14877567,0.10545103,inf,inf,inf,inf,1,1,1,1,3,1,3,2,4,1,1,1,0
481836546,481832101,31044075,49.078753500000005,2.2543773,-0.87812924,-2.1850224,2.2341762,-0.0069100135,-0.00015225113,0.25713933,0.024016744,0.042374384,0.03262314,-0.0025768448,-0.036898524,0.010050106,0.041895274,3.0827234,-1.7547357,2.3303587,-0.5240737,0.01776818,99.7061,0.1,0.349045,0.38877115,0.1395617,0.102843314,inf,inf,inf,inf,1,1,1,1,3,1,3,2,4,1,1,1,0
481843195,481842108,31044075,49.078753500000005,2.2543773,-0.8771146,-2.185199,2.233597,-0.0069100135,-0.00015225113,0.25713933,0.0049097836,0.04576745,0.025971161,-0.009628476,-0.036898524,0.010050106,0.041895274,-1.4412222,-0.97857577,2.868284,-0.5245929,0.01776818,99.7061,0.1,0.34982362,0.38942435,0.13998696,0.103027545,inf,inf,inf,inf,1,1,1,1,3,1,3,2,4,1,1,1,0
481853418,481852116,31044075,49.078753500000005,2.2543773,-0.8761003,-2.185397,2.2330956,-0.0069100135,-0.00015225113,0.25713933,0.008605058,0.042367082,0.008066648,-0.027901059,-0.036898524,0.010050106,0.041895274,-3.3630748,0.28239042,-5.334112,-0.52479076,0.01776818,99.7061,0.1,0.3506072,0.39007968,0.14042355,0.10321366,inf,inf,inf,inf,1,1,1,1,3,1,3,2,4,1,1,1,0
481863503,481862123,31044075,49.078753500000005,2.2543773,-0.87515223,-2.1855764,2.2325206,-0.0069100135,-0.00015225113,0.25713933,0.019509993,0.042612843,0.032742277,-0.0036136783,-0.036898524,0.010050106,0.041895274,1.7377592,0.04650091,2.2784414,-0.5244924,0.01776818,99.7061,0.1,0.35139576,0.38832477,0.14080895,0.10314312,inf,inf,inf,inf,1,1,1,1,3,1,3,2,4,1,1,1,0
481873476,481872305,31044075,49.078753500000005,2.2543773,-0.8742009,-2.185778,2.2319672,-0.0069100135,-0.00015225113,0.25713933,0.01907305,0.03812889,0.016728967,-0.019983951,-0.036898524,0.010050106,0.041895274,1.6441593,0.6708469,0.3554447,-0.5244078,0.01776818,99.7061,0.1,0.35218915,0.38898033,0.14122994,0.103327885,inf,inf,inf,inf,1,1,1,1,3,1,3,2,4,1,1,1,0
481883556,481882267,31044075,49.078753500000005,2.2543773,-0.87320715,-2.1859157,2.2314813,-0.0069100135,-0.00015225113,0.25713933,0.019102922,0.03684143,0.025736649,-0.011303143,-0.036898524,0.010050106,0.041895274,-1.3404427,-2.192036,-0.46211818,-0.52476114,0.01776818,99.7061,0.1,0.3529875,0.38963804,0.14168276,0.10351394,inf,inf,inf,inf,1,1,1,1,3,1,3,2,4,1,1,1,0
481893285,481892231,31044075,49.078753500000005,2.2543773,-0.87221426,-2.186099,2.2309713,-0.0069100135,-0.00015225113,0.25713933,0.035855707,0.04504068,0.023645978,-0.013691698,-0.036898524,0.010050106,0.041895274,2.6671264,2.8676126,1.6247576,-0.5244795,0.01776818,99.7061,0.1,0.35379094,0.39029792,0.14206658,0.10370119,inf,inf,inf,inf,1,1,1,1,3,1,3,2,4,1,1,1,0
481904212,481902191,31044075,49.078753500000005,2.2543773,-0.87118256,-2.186198,2.230492,-0.0069100135,-0.00015225113,0.25713933,0.028645596,0.038460337,0.015920956,-0.02168673,-0.036898524,0.010050106,0.041895274,-0.37098098,-0.96283895,-1.0990644,-0.5243527,0.01776818,99.7061,0.1,0.3545992,0.39095995,0.14245786,0.10388946,inf,inf,inf,inf,1,1,1,1,3,1,3,2,4,1,1,1,0
481913438,481912161,31044075,49.078753500000005,2.2543773,-0.8701581,-2.1863542,2.2299435,-0.0069100135,-0.00015225113,0.25713933,0.03356844,0.042120952,0.015605072,-0.022358917,-0.036898524,0.010050106,0.041895274,-0.17977893,2.397159,-2.6945603,-0.5237858,0.01776818,99.7061,0.1,0.3554124,0.38919535,0.14288728,0.103812486,inf,inf,inf,inf,1,1,1,1,3,1,3,2,4,1,1,1,0
481924306,481922169,31044075,49.078753500000005,2.2543773,-0.8691372,-2.1864448,2.2293682,-0.0069100135,-0.00015225113,0.25713933,0.03915282,0.027788114,0.026440876,-0.011848872,-0.036898524,0.010050106,0.041895274,1.1647574,-3.3132963,2.6437664,-0.52400625,0.01776818,99.7061,0.1,0.35623062,0.38985762,0.14332686,0.103998244,inf,inf,inf,inf,1,1,1,1,3,1,3,2,4,1,1,1,0
481933978,481932177,31044075,49.078753500000005,2.2543773,-0.8681544,-2.186561,2.2288384,-0.0069100135,-0.00015225113,0.25713933,0.033742376,0.034802023,0.016526131,-0.022059899,-0.036898524,0.010050106,0.041895274,0.7570156,-0.8681205,-0.1566217,-0.5240673,0.01776818,99.7061,0.1,0.3570539,0.390522,0.14373782,0.1041868,inf,inf,inf,inf,1,1,1,1,3,1,3,2,4,1,1,1,0
481944321,481942183,31044075,49.078753500000005,2.2543773,-0.8671614,-2.1866693,2.2282977,-0.0069100135,-0.00015225113,0.25713933,0.021597821,0.04605348,0.017547382,-0.021306638,-0.036898524,0.010050106,0.041895274,-4.58163,3.4811883,0.611698,-0.52389354,0.01776818,99.7061,0.1,0.3578822,0.3911886,0.14412364,0.10437482,inf,inf,inf,inf,1,1,1,1,3,1,3,2,4,1,1,1,0
481953922,481952191,31044075,49.078753500000005,2.2543773,-0.8662062,-2.1868114,2.2278953,-0.0069100135,-0.00015225113,0.25713933,0.04060209,0.02188751,0.014601426,-0.02449339,-0.036898524,0.010050106,0.041895274,0.61739063,-0.69468945,-4.614522,-0.52357084,0.01776818,99.7061,0.1,0.3587154,0.39185736,0.14456627,0.10456185,inf,inf,inf,inf,1,1,1,1,3,1,3,2,4,1,1,1,0
481964488,481962199,31044075,49.078753500000005,2.2543773,-0.8652395,-2.1868753,2.2274613,-0.0069100135,-0.00015225113,0.25713933,0.044925816,0.03273908,0.038489293,-0.0008202255,-0.036898524,0.010050106,0.041895274,2.4089384,-2.3391035,4.2596874,-0.5235545,0.01776818,99.7061,0.1,0.3595537,0.39252833,0.14504857,0.10474987,inf,inf,inf,inf,1,1,1,1,3,1,3,2,4,1,1,1,0
481974115,481972206,31044075,49.078753500000005,2.2543773,-0.86431074,-2.1870217,2.2270412,-0.0069100135,-0.00015225113,0.25713933,0.031560156,0.024210382,0.02610543,-0.01345451,-0.036898524,0.010050106,0.041895274,-0.38711607,0.079331495,0.8487346,-0.5236795,0.01776818,99.7061,0.1,0.3603973,0.3907434,0.14538573,0.10466711,inf,inf,inf,inf,1,1,1,1,3,1,3,2,4,1,1,1,0
481984623,481982214,31044075,49.078753500000005,2.2543773,-0.8633552,-2.1871483,2.2266834,-0.0069100135,-0.00015225113,0.25713933,0.030899951,0.025741085,0.021121008,-0.018662382,-0.036898524,0.010050106,0.041895274,-3.6495416,-0.48624048,-3.3638892,-0.5235834,0.01776818,99.7061,0.1,0.36124563,0.39141452,0.14586943,0.10485549,inf,inf,inf,inf,1,1,1,1,3,1,3,2,4,1,1,1,0
481993919,481992221,31044075,49.078753500000005,2.2543773,-0.862432,-2.1872997,2.2262688,-0.0069100135,-0.00015225113,0.25713933,0.043508913,0.019092306,0.035092264,-0.0048889783,-0.036898524,0.010050106,0.041895274,0.57826334,-0.8596162,3.4364734,-0.5233962,0.01776818,99.7061,0.1,0.36209926,0.39208782,0.14626037,0.10504361,inf,inf,inf,inf,1,1,1,1,3,1,3,2,4,1,1,1,0
482004573,482002229,31044075,49.078753500000005,2.2543773,-0.86155736,-2.1874614,2.225986,-0.0069100135,-0.00015225113,0.25713933,0.045434143,0.021353755,0.02721976,-0.012934818,-0.036898524,0.010050106,0.041895274,3.7086182,0.19138166,-1.8442893,-0.5231729,0.01776818,99.7061,0.1,0.3629579,0.39276335,0.14669123,0.10523108,inf,inf,inf,inf,1,1,1,1,3,1,3,2,4,1,1,1,0
482013991,482012239,31044075,49.078753500000005,2.2543773,-0.8606727,-2.1876113,2.2256618,-0.0069100135,-0.00015225113,0.25713933,0.031131912,0.023275921,0.030382534,-0.009921791,-0.036898524,0.010050106,0.041895274,-1.4479432,1.0505397,0.803948,-0.523208,0.01776818,99.7061,0.1,0.36382163,0.39344105,0.14714165,0.10541992,inf,inf,inf,inf,1,1,1,1,3,1,3,2,4,1,1,1,0
482024642,482022247,31044075,49.078753500000005,2.2543773,-0.8598194,-2.1877608,2.2252307,-0.0069100135,-0.00015225113,0.25713933,0.032796472,0.008657675,0.029510902,-0.011098406,-0.036898524,0.010050106,0.041895274,-1.804006,-2.557527,-1.1779256,-0.52312374,0.01776818,99.7061,0.1,0.36469057,0.39164573,0.14756794,0.105332404,inf,inf,inf,inf,1,1,1,1,3,1,3,2,4,1,1,1,0
482035339,482032252,31044075,49.078753500000005,2.2543773,-0.8585657,-2.1877708,2.2244644,-0.0069100135,-0.00015225113,0.25713933,0.04251807,0.024781616,0.024736844,-0.01641783,-0.036898524,0.010050106,0.041895274,0.14115609,-1.136544,1.4170446,-0.52295446,0.01776818,99.7061,0.1,0.34917736,0.38806415,0.13852851,0.10273554,inf,inf,inf,inf,1,1,1,1,3,1,3,2,4,1,1,1,0
482044198,482042260,31044075,49.078753500000005,2.2543773,-0.85739183,-2.1878035,2.2237291,-0.0069100135,-0.00015225113,0.25713933,0.03924267,0.028164009,0.021953627,-0.019706206,-0.036898524,0.010050106,0.041895274,2.2108977,2.7325907,0.2305754,-0.52286154,0.01776818,99.7061,0.1,0.3499558,0.38871586,0.13897547,0.102921516,inf,inf,inf,inf,1,1,1,1,3,1,3,2,4,1,1,1,0
482054301,482052267,31044075,49.078753500000005,2.2543773,-0.85624486,-2.1878762,2.2230804,-0.0069100135,-0.00015225113,0.25713933,0.033621352,0.02127964,0.014937249,-0.027189167,-0.036898524,0.010050106,0.041895274,0.0068147755,3.1098251,-4.3147645,-0.5224506,0.01776818,99.7061,0.1,0.35073918,0.38936973,0.13938722,0.10310711,inf,inf,inf,inf,1,1,1,1,3,1,3,2,4,1,1,1,0
482064073,482062275,31044075,49.078753500000005,2.2543773,-0.85515344,-2.1878655,2.2222967,-0.0069100135,-0.00015225113,0.25713933,0.027091833,0.0028113443,0.020116132,-0.022439733,-0.036898524,0.010050106,0.041895274,-1.4284784,-5.987519,3.0021896,-0.5226268,0.01776818,99.7061,0.1,0.35152733,0.3900257,0.13981326,0.10329673,inf,inf,inf,inf,1,1,1,1,3,1,3,2,4,1,1,1,0
482074663,482072282,31044075,49.078753500000005,2.2543773,-0.8541326,-2.187903,2.221335,-0.0069100135,-0.00015225113,0.25713933,0.03328826,0.020405756,0.027931804,-0.01533436,-0.036898524,0.010050106,0.041895274,1.6258409,-0.4022312,1.7814881,-0.5226309,0.01776818,99.7061,0.1,0.35232037,0.38827243,0.14015034,0.10322374,inf,inf,inf,inf,1,1,1,1,3,1,3,2,4,1,1,1,0
482084065,482082290,31044075,49.078753500000005,2.2543773,-0.85314447,-2.1879294,2.2203276,-0.0069100135,-0.00015225113,0.25713933,0.020423086,0.027196074,0.0044151032,-0.039513007,-0.036898524,0.010050106,0.041895274,-1.2827445,3.3616652,-0.9904914,-0.5225693,0.01776818,99.7061,0.1,0.35311803,0.38892865,0.14060912,0.10341174,inf,inf,inf,inf,1,1,1,1,3,1,3,2,4,1,1,1,0
482094468,482092297,31044075,49.078753500000005,2.2543773,-0.8522257,-2.187918,2.219428,-0.0069100135,-0.00015225113,0.25713933,0.011671538,0.018463088,0.016733253,-0.02781038,-0.036898524,0.010050106,0.041895274,-3.5469186,0.23904125,-2.5312436,-0.5222213,0.01776818,99.7061,0.1,0.35392067,0.38958704,0.14104459,0.10359889,inf,inf,inf,inf,1,1,1,1,3,1,3,2,4,1,1,1,0
482104079,482102305,31044075,49.078753500000005,2.2543773,-0.8513259,-2.1879244,2.2185657,-0.0069100135,-0.00015225113,0.25713933,0.032712534,0.014483418,0.028248068,-0.016866395,-0.036898524,0.010050106,0.041895274,1.6689427,-0.7729185,2.2336743,-0.5219333,0.01776818,99.7061,0.1,0.35472822,0.3902476,0.14141709,0.10378712,inf,inf,inf,inf,1,1,1,1,3,1,3,2,4,1,1,1,0
482114478,482112312,31044075,49.078753500000005,2.2543773,-0.8504926,-2.1878319,2.2176886,-0.0069100135,-0.00015225113,0.25713933,0.023352923,0.022632513,0.016306411,-0.029335923,-0.036898524,0.010050106,0.041895274,2.8509223,-2.3456318,1.7812514,-0.5221102,0.01776818,99.7061,0.1,0.35554054,0.39091036,0.14186424,0.10397442,inf,inf,inf,inf,1,1,1,1,3,1,3,2,4,1,1,1,0
482124092,482122323,31044075,49.078753500000005,2.2543773,-0.84966594,-2.1878068,2.2169714,-0.0069100135,-0.00015225113,0.25713933,0.015564454,0.022012454,0.029934995,-0.016193856,-0.036898524,0.010050106,0.041895274,-1.0404694,1.36264,-0.31285697,-0.5220858,0.01776818,99.7061,0.1,0.3563578,0.39157525,0.14227445,0.10416167,inf,inf,inf,inf,1,1,1,1,3,1,3,2,4,1,1,1,0
482134830,482132503,31044075,49.078753500000005,2.2543773,-0.8488232,-2.1877353,2.2160504,-0.0069100135,-0.00015225113,0.25713933,0.019860158,0.026407735,0.009319835,-0.0374342,-0.036898524,0.010050106,0.041895274,-1.9727452,1.1820306,-2.550288,-0.521908,0.01776818,99.7061,0.1,0.35718,0.3898021,0.14269964,0.10408505,inf,inf,inf,inf,1,1,1,1,3,1,3,2,4,1,1,1,0
482144079,482142464,31044075,49.078753500000005,2.2543773,-0.8480111,-2.1876502,2.2151513,-0.0069100135,-0.00015225113,0.25713933,0.02587358,0.02517136,0.025739947,-0.02159322,-0.036898524,0.010050106,0.041895274,0.44082487,0.7194502,0.8395927,-0.5216445,0.01776818,99.7061,0.1,0.3580071,0.3904672,0.14313866,0.10427131,inf,inf,inf,inf,1,1,1,1,3,1,3,2,4,1,1,1,0
482154640,482152424,31044075,49.078753500000005,2.2543773,-0.8472005,-2.1875653,2.2142868,-0.0069100135,-0.00015225113,0.25713933,0.03584534,0.022316154,0.012190727,-0.035677366,-0.036898524,0.010050106,0.041895274,3.407347,0.1574359,-1.4612409,-0.5213182,0.01776818,99.7061,0.1,0.35883924,0.3911345,0.14357178,0.10445885,inf,inf,inf,inf,1,1,1,1,3,1,3,2,4,1,1,1,0
482164008,482162386,31044075,49.078753500000005,2.2543773,-0.8463775,-2.187383,2.2133462,-0.0069100135,-0.00015225113,0.25713933,0.018367121,0.034524992,0.012376301,-0.035984073,-0.036898524,0.010050106,0.041895274,-2.115804,0.06937189,1.5914012,-0.52141744,0.01776818,99.7061,0.1,0.35967636,0.39180398,0.1440203,0.10464754,inf,inf,inf,inf,1,1,1,1,3,1,3,2,4,1,1,1,0
482174196,482172360,31044075,49.078753500000005,2.2543773,-0.8455612,-2.1872299,2.2125487,-0.0069100135,-0.00015225113,0.25713933,0.027991714,0.020227473,0.017704047,-0.031107796,-0.036898524,0.010050106,0.041895274,-1.4696841,-1.7093737,-1.0294504,-0.52162004,0.01776818,99.7061,0.1,0.36051852,0.3924756,0.14442798,0.10483757,inf,inf,inf,inf,1,1,1,1,3,1,3,2,4,1,1,1,0
482184390,482182366,31044075,49.078753500000005,2.2543773,-0.8447467,-2.1870434,2.2115347,-0.0069100135,-0.00015225113,0.25713933,0.03234172,0.033188544,0.016716622,-0.0327169,-0.036898524,0.010050106,0.041895274,0.2211001,-0.34255767,1.0143262,-0.52143013,0.01776818,99.7061,0.1,0.36136562,0.39069235,0.14482677,0.10475315,inf,inf,inf,inf,1,1,1,1,3,1,3,2,4,1,1,1,0
482194062,482192374,31044075,49.078753500000005,2.2543773,-0.8439472,-2.1868372,2.2105486,-0.0069100135,-0.00015225113,0.25713933,0.03152707,0.03659728,0.011452932,-0.038555305,-0.036898524,0.010050106,0.041895274,0.31003606,1.5642135,-0.14733937,-0.5213927,0.01776818,99.7061,0.1,0.3622176,0.39136413,0.14533584,0.104940675,inf,inf,inf,inf,1,1,1,1,3,1,3,2,4,1,1,1,0
482204139,482202382,31044075,49.078753500000005,2.2543773,-0.84314513,-2.1866379,2.209683,-0.0069100135,-0.00015225113,0.25713933,0.033475712,0.038496874,0.011732446,-0.03880535,-0.036898524,0.010050106,0.041895274,-0.07070887,3.0669525,-4.0207796,-0.5212273,0.01776818,99.7061,0.1,0.3630749,0.39203814,0.14572072,0.10512993,inf,inf,inf,inf,1,1,1,1,3,1,3,2,4,1,1,1,0
482213609,482212391,31044075,49.078753500000005,2.2543773,-0.84233314,-2.1863906,2.2087533,-0.0069100135,-0.00015225113,0.25713933,0.040177535,0.028145835,0.020946318,-0.030077595,-0.036898524,0.010050106,0.041895274,1.0689765,-1.5344964,2.843848,-0.52130413,0.01776818,99.7061,0.1,0.36393708,0.39271435,0.14610913,0.10531901,inf,inf,inf,inf,1,1,1,1,3,1,3,2,4,1,1,1,0
482224200,482222399,31044075,49.078753500000005,2.2543773,-0.8415469,-2.1861238,2.207968,-0.0069100135,-0.00015225113,0.25713933,0.03552411,0.023536887,0.029708028,-0.0217603,-0.036898524,0.010050106,0.041895274,0.8935286,-4.606174,2.1811335,-0.52158606,0.01776818,99.7061,0.1,0.3648041,0.39339277,0.14658079,0.10550664,inf,inf,inf,inf,1,1,1,1,3,1,3,2,4,1,1,1,0
482235178,482232407,31044075,49.078753500000005,2.2543773,-0.8395895,-2.1861675,2.2063766,-0.0069100135,-0.00015225113,0.25713933,0.04049136,0.04693721,0.016917473,-0.03575972,-0.036898524,0.010050106,0.041895274,-0.0036660016,3.3291352,1.6129873,-0.52168787,0.01776818,99.7061,0.1,0.34931388,0.38736612,0.13768691,0.10264057,inf,inf,inf,inf,1,1,1,1,3,1,3,2,4,1,1,1,0
482244066,482242416,31044075,49.078753500000005,2.2543773,-0.8377102,-2.186137,2.204838,-0.0069100135,-0.00015225113,0.25713933,0.031048784,0.042108815,0.0030992636,-0.050712958,-0.036898524,0.010050106,0.041895274,-1.3410519,1.8635068,-3.6194901,-0.52171195,0.01776818,99.7061,0.1,0.35009173,0.38801643,0.13817926,0.10282709,inf,inf,inf,inf,1,1,1,1,3,1,3,2,4,1,1,1,0
482253542,482252421,31044075,49.078753500000005,2.2543773,-0.8358418,-2.1861274,2.2033596,-0.0069100135,-0.00015225113,0.25713933,0.03978822,0.032407828,0.021218311,-0.033657946,-0.036898524,0.010050106,0.041895274,-1.2148138,-0.09700196,0.28562942,-0.52158576,0.01776818,99.7061,0.1,0.35087457,0.38866886,0.13854115,0.10301426,inf,inf,inf,inf,1,1,1,1,3,1,3,2,4,1,1,1,0
482264073,482262429,31044075,49.078753500000005,2.2543773,-0.8340227,-2.1860478,2.201913,-0.0069100135,-0.00015225113,0.25713933,0.047108322,0.03859079,0.011577412,-0.044294536,-0.036898524,0.010050106,0.041895274,2.0239148,-1.4459245,0.13780794,-0.5213229,0.01776818,99.7061,0.1,0.35166195,0.38932347,0.13900481,0.103201754,inf,inf,inf,inf,1,1,1,1,3,1,3,2,4,1,1,1,0
482273558,482272434,31044075,49.078753500000005,2.2543773,-0.83225185,-2.1859467,2.2004943,-0.0069100135,-0.00015225113,0.25713933,0.036388304,0.04264709,0.01781855,-0.03898338,-0.036898524,0.010050106,0.041895274,-0.39143693,0.0056379847,2.1323216,-0.5216558,0.01776818,99.7061,0.1,0.35245427,0.38998023,0.13942307,0.10338758,inf,inf,inf,inf,1,1,1,1,3,1,3,2,4,1,1,1,0
482283998,482282443,31044075,49.078753500000005,2.2543773,-0.8305216,-2.1858726,2.1992443,-0.0069100135,-0.00015225113,0.25713933,0.04034596,0.037922326,0.015697297,-0.04197135,-0.036898524,0.010050106,0.041895274,-0.5145108,0.5677023,-2.6173704,-0.5217217,0.01776818,99.7061,0.1,0.35325137,0.39063913,0.13982514,0.10357644,inf,inf,inf,inf,1,1,1,1,3,1,3,2,4,1,1,1,0
482293730,482292449,31044075,49.078753500000005,2.2543773,-0.8288137,-2.1857212,2.1976693,-0.0069100135,-0.00015225113,0.25713933,0.03864936,0.045023702,0.011437889,-0.047232155,-0.036898524,0.010050106,0.041895274,-1.4512981,-0.4356974,3.1854198,-0.52179825,0.01776818,99.7061,0.1,0.35405317,0.38887736,0.14025062,0.10350121,inf,inf,inf,inf,1,1,1,1,3,1,3,2,4,1,1,1,0
482304193,482302457,31044075,49.078753500000005,2.2543773,-0.82718956,-2.185577,2.1962855,-0.0069100135,-0.00015225113,0.25713933,0.040889043,0.038852822,0.009077494,-0.050526783,-0.036898524,0.010050106,0.041895274,0.7779795,-0.7609432,-3.393504,-0.52176553,0.01776818,99.7061,0.1,0.35485983,0.38953644,0.14069168,0.10368842,inf,inf,inf,inf,1,1,1,1,3,1,3,2,4,1,1,1,0
482313567,482312465,31044075,49.078753500000005,2.2543773,-0.8255727,-2.1854718,2.1949222,-0.0069100135,-0.00015225113,0.25713933,0.044342954,0.04346912,0.014361202,-0.04611265,-0.036898524,0.010050106,0.041895274,0.73213047,2.1275046,-0.9249298,-0.5214012,0.01776818,99.7061,0.1,0.35567138,0.39019772,0.14111471,0.1038759,inf,inf,inf,inf,1,1,1,1,3,1,3,2,4,1,1,1,0
482324143,482322475,31044075,49.078753500000005,2.2543773,-0.8239731,-2.185247,2.1935782,-0.0069100135,-0.00015225113,0.25713933,0.03788145,0.040467717,0.006239318,-0.055041924,-0.036898524,0.010050106,0.041895274,-1.6786335,-2.6751566,-1.48254,-0.5217073,0.01776818,99.7061,0.1,0.35648775,0.39086115,0.14150782,0.10406478,inf,inf,inf,inf,1,1,1,1,3,1,3,2,4,1,1,1,0
482333574,482332480,31044075,49.078753500000005,2.2543773,-0.82239974,-2.1850855,2.192301,-0.0069100135,-0.00015225113,0.25713933,0.04545184,0.036631588,0.028689886,-0.033338968,-0.036898524,0.010050106,0.041895274,-0.43490234,-1.3397778,3.7862267,-0.52210575,0.01776818,99.7061,0.1,0.35730886,0.3915268,0.14190307,0.10425309,inf,inf,inf,inf,1,1,1,1,3,1,3,2,4,1,1,1,0
482344252,482342487,31044075,49.078753500000005,2.2543773,-0.8208485,-2.1848931,2.1907852,-0.0069100135,-0.00015225113,0.25713933,0.05333257,0.04468836,0.006186241,-0.05682295,-0.036898524,0.010050106,0.041895274,2.1316924,-0.09529037,-0.6002261,-0.52193755,0.01776818,99.7061,0.1,0.35813478,0.38975525,0.14237338,0.10417252,inf,inf,inf,inf,1,1,1,1,3,1,3,2,4,1,1,1,0
482353707,482352494,31044075,49.078753500000005,2.2543773,-0.8193262,-2.1846905,2.1892424,-0.0069100135,-0.00015225113,0.25713933,0.0342489,0.04822845,0.0032536588,-0.060667783,-0.036898524,0.010050106,0.041895274,-3.0435455,1.8620628,-0.50541776,-0.5220528,0.01776818,99.7061,0.1,0.3589657,0.39042106,0.1428478,0.104361035,inf,inf,inf,inf,1,1,1,1,3,1,3,2,4,1,1,1,0
482363713,482362502,31044075,49.078753500000005,2.2543773,-0.8178862,-2.1845329,2.1878524,-0.0069100135,-0.00015225113,0.25713933,0.043759495,0.03860901,0.0076249107,-0.057143245,-0.036898524,0.010050106,0.041895274,-0.23222643,1.5324388,-3.5032642,-0.5217729,0.01776818,99.7061,0.1,0.35980165,0.39108902,0.14321192,0.104550295,inf,inf,inf,inf,1,1,1,1,3,1,3,2,4,1,1,1,0
482373713,482372510,31044075,49.078753500000005,2.2543773,-0.81643295,-2.1843987,2.1864111,-0.0069100135,-0.00015225113,0.25713933,0.04485726,0.03235306,0.0012298753,-0.06432202,-0.036898524,0.010050106,0.041895274,-0.7221404,-0.08954647,-0.795676,-0.52193606,0.01776818,99.7061,0.1,0.36064234,0.39175922,0.14367424,0.104738034,inf,inf,inf,inf,1,1,1,1,3,1,3,2,4,1,1,1,0
482383608,482382521,31044075,49.078753500000005,2.2543773,-0.8151023,-2.1841998,2.1849923,-0.0069100135,-0.00015225113,0.25713933,0.043005176,0.025106138,0.018947797,-0.04732727,-0.036898524,0.010050106,0.041895274,2.5010927,-5.1142335,5.0576777,-0.52216965,0.01776818,99.7061,0.1,0.36148807,0.3924316,0.14408135,0.10492591,inf,inf,inf,inf,1,1,1,1,3,1,3,2,4,1,1,1,0
482394336,482392695,31044075,49.078753500000005,2.2543773,-0.8137481,-2.1840408,2.183499,-0.0069100135,-0.00015225113,0.25713933,0.044295188,0.045951016,-0.012384525,-0.07944108,-0.036898524,0.010050106,0.041895274,0.7810148,2.5784538,-2.2548876,-0.5221095,0.01776818,99.7061,0.1,0.3623386,0.39064986,0.14451896,0.10484385,inf,inf,inf,inf,1,1,1,1,3,1,3,2,4,1,1,1,0
482403724,482402657,31044075,49.078753500000005,2.2543773,-0.81244004,-2.1838143,2.1819956,-0.0069100135,-0.00015225113,0.25713933,0.025521163,0.050542787,-0.0077168564,-0.07549378,-0.036898524,0.010050106,0.041895274,-4.49375,3.3752785,-1.4501727,-0.5218864,0.01776818,99.7061,0.1,0.36319417,0.3913224,0.144965,0.10503176,inf,inf,inf,inf,1,1,1,1,3,1,3,2,4,1,1,1,0
482414008,482412617,31044075,49.078753500000005,2.2543773,-0.81119376,-2.1836128,2.180651,-0.0069100135,-0.00015225113,0.25713933,0.046060164,0.029149953,0.013052191,-0.05538638,-0.036898524,0.010050106,0.041895274,1.1670285,-1.2814752,0.7452552,-0.5214484,0.01776818,99.7061,0.1,0.36405474,0.39199716,0.14540517,0.105221145,inf,inf,inf,inf,1,1,1,1,3,1,3,2,4,1,1,1,0
482423711,482422577,31044075,49.078753500000005,2.2543773,-0.8099514,-2.183364,2.1793063,-0.0069100135,-0.00015225113,0.25713933,0.04111704,0.039232865,0.0028097173,-0.06623402,-0.036898524,0.010050106,0.041895274,0.7908572,-1.9164661,1.6294183,-0.521195,0.01776818,99.7061,0.1,0.36492035,0.39267412,0.14581928,0.10540955,inf,inf,inf,inf,1,1,1,1,3,1,3,2,4,1,1,1,0
482433946,482432557,31044075,49.078753500000005,2.2543773,-0.8087743,-2.1831691,2.1780353,-0.0069100135,-0.00015225113,0.25713933,0.03801464,0.033203285,0.011928573,-0.057666156,-0.036898524,0.010050106,0.041895274,0.8810123,-0.29682693,2.220307,-0.52105045,0.01776818,99.7061,0.1,0.36579084,0.39335328,0.14628188,0.10559875,inf,inf,inf,inf,1,1,1,1,3,1,3,2,4,1,1,1,0
482444469,482442562,31044075,49.078753500000005,2.2543773,-0.80697304,-2.1831412,2.1767583,-0.0069100135,-0.00015225113,0.25713933,0.035708185,0.03941904,0.0035636264,-0.06668092,-0.036898524,0.010050106,0.041895274,-1.8892457,3.3871388,-3.0725763,-0.5204635,0.01776818,99.7061,0.1,0.35015923,0.38971302,0.13739221,0.10298079,inf,inf,inf,inf,1,1,1,1,3,1,3,2,4,1,1,1,0
482454295,482452570,31044075,49.078753500000005,2.2543773,-0.8052118,-2.1830723,2.1755536,-0.0069100135,-0.00015225113,0.25713933,0.031343758,0.027771087,-2.7670903e-05,-0.07075667,-0.036898524,0.010050106,0.041895274,-3.6098223,-0.7234824,-1.5911005,-0.52010626,0.01776818,99.7061,0.1,0.35094032,0.38796237,0.13789017,0.10291047,inf,inf,inf,inf,1,1,1,1,3,1,3,2,4,1,1,1,0
482463703,482462577,31044075,49.078753500000005,2.2543773,-0.8035717,-2.1830473,2.1744275,-0.0069100135,-0.00015225113,0.25713933,0.049233966,0.023403179,0.021813633,-0.04935028,-0.036898524,0.010050106,0.041895274,4.32934,-0.9508322,3.1619017,-0.5195645,0.01776818,99.7061,0.1,0.3517263,0.3886155,0.13832241,0.10309736,inf,inf,inf,inf,1,1,1,1,3,1,3,2,4,1,1,1,0
482474120,482472585,31044075,49.078753500000005,2.2543773,-0.80189866,-2.1830058,2.1733274,-0.0069100135,-0.00015225113,0.25713933,0.044230316,0.04155441,-0.0043791323,-0.075930364,-0.036898524,0.010050106,0.041895274,1.5350401,3.9112375,-2.052012,-0.5191476,0.01776818,99.7061,0.1,0.35251707,0.38927072,0.13873075,0.10328589,inf,inf,inf,inf,1,1,1,1,3,1,3,2,4,1,1,1,0
482483719,482482592,31044075,49.078753500000005,2.2543773,-0.80029374,-2.1828668,2.1722088,-0.0069100135,-0.00015225113,0.25713933,0.030699976,0.02637401,0.010103823,-0.061789,-0.036898524,0.010050106,0.041895274,-2.000803,-2.2998743,2.0149293,-0.51899254,0.01776818,99.7061,0.1,0.3533125,0.38992813,0.13917685,0.10347413,inf,inf,inf,inf,1,1,1,1,3,1,3,2,4,1,1,1,0
482494223,482492601,31044075,49.078753500000005,2.2543773,-0.79870814,-2.1827786,2.171183,-0.0069100135,-0.00015225113,0.25713933,0.03273321,0.033258405,-0.0034871788,-0.07567781,-0.036898524,0.010050106,0.041895274,-3.4650192,0.47205004,-2.6282983,-0.5185944,0.01776818,99.7061,0.1,0.35411277,0.3905877,0.13954115,0.10366256,inf,inf,inf,inf,1,1,1,1,3,1,3,2,4,1,1,1,0
482503845,482502608,31044075,49.078753500000005,2.2543773,-0.797171,-2.1825743,2.1698964,-0.0069100135,-0.00015225113,0.25713933,0.040591627,0.04559077,-0.005285885,-0.077887945,-0.036898524,0.010050106,0.041895274,-0.49352533,0.6116163,1.2867577,-0.5184466,0.01776818,99.7061,0.1,0.3549176,0.38882756,0.14008115,0.10358665,inf,inf,inf,inf,1,1,1,1,3,1,3,2,4,1,1,1,0
482513917,482512615,31044075,49.078753500000005,2.2543773,-0.79576594,-2.1824188,2.1687474,-0.0069100135,-0.00015225113,0.25713933,0.04424759,0.03435868,0.005283655,-0.06768279,-0.036898524,0.010050106,0.041895274,5.0481267,0.9202972,0.36959782,-0.5177773,0.01776818,99.7061,0.1,0.35572755,0.38948736,0.14049058,0.103774,inf,inf,inf,inf,1,1,1,1,3,1,3,2,4,1,1,1,0
482523861,482522624,31044075,49.078753500000005,2.2543773,-0.7943173,-2.1822512,2.1676464,-0.0069100135,-0.00015225113,0.25713933,0.029972268,0.032862674,-0.003576193,-0.07686179,-0.036898524,0.010050106,0.041895274,-2.0961902,-0.7578388,-1.5867712,-0.5173307,0.01776818,99.7061,0.1,0.35654226,0.39014933,0.14084437,0.10396436,inf,inf,inf,inf,1,1,1,1,3,1,3,2,4,1,1,1,0
482533743,482532630,31044075,49.078753500000005,2.2543773,-0.7929764,-2.1820788,2.166518,-0.0069100135,-0.00015225113,0.25713933,0.030778002,0.028078364,0.00352464,-0.07003686,-0.036898524,0.010050106,0.041895274,-0.34114105,-2.3232434,2.4249883,-0.51729953,0.01776818,99.7061,0.1,0.35736156,0.39081347,0.14130719,0.10415141,inf,inf,inf,inf,1,1,1,1,3,1,3,2,4,1,1,1,0
482544033,482542642,31044075,49.078753500000005,2.2543773,-0.79167473,-2.1819468,2.1654563,-0.0069100135,-0.00015225113,0.25713933,0.03363252,0.034876034,-0.005024038,-0.07881981,-0.036898524,0.010050106,0.041895274,0.85465586,1.1820586,-0.538578,-0.5171518,0.01776818,99.7061,0.1,0.35818574,0.3914798,0.14170384,0.10434023,inf,inf,inf,inf,1,1,1,1,3,1,3,2,4,1,1,1,0
482553930,482552646,31044075,49.078753500000005,2.2543773,-0.7904156,-2.1817384,2.1645677,-0.0069100135,-0.00015225113,0.25713933,0.030219916,0.040728357,-0.004707184,-0.07853343,-0.036898524,0.010050106,0.041895274,0.41999337,0.99667186,-0.37576228,-0.5168637,0.01776818,99.7061,0.1,0.3590147,0.3897098,0.1421634,0.10426146,inf,inf,inf,inf,1,1,1,1,3,1,3,2,4,1,1,1,0
482564042,482562653,31044075,49.078753500000005,2.2543773,-0.7892072,-2.181567,2.163737,-0.0069100135,-0.00015225113,0.25713933,0.024758875,0.029147206,0.0020905493,-0.07173506,-0.036898524,0.010050106,0.041895274,-0.9253919,-0.091326736,0.51385754,-0.51638204,0.01776818,99.7061,0.1,0.35984856,0.39037633,0.14260721,0.104451075,inf,inf,inf,inf,1,1,1,1,3,1,3,2,4,1,1,1,0
482573790,482572660,31044075,49.078753500000005,2.2543773,-0.7879928,-2.181361,2.1629965,-0.0069100135,-0.00015225113,0.25713933,0.032028068,0.03932978,-0.003369627,-0.07716491,-0.036898524,0.010050106,0.041895274,-0.6631908,0.68581176,-2.8469641,-0.516169,0.01776818,99.7061,0.1,0.36068735,0.39104503,0.14296226,0.104640186,inf,inf,inf,inf,1,1,1,1,3,1,3,2,4,1,1,1,0
482584055,482582668,31044075,49.078753500000005,2.2543773,-0.78685415,-2.18115,2.1621819,-0.0069100135,-0.00015225113,0.25713933,0.028410316,0.024330752,0.0053308173,-0.06840568,-0.036898524,0.010050106,0.041895274,0.89543337,-2.6183376,3.3179827,-0.5163342,0.01776818,99.7061,0.1,0.36153072,0.39171594,0.14348798,0.10482686,inf,inf,inf,inf,1,1,1,1,3,1,3,2,4,1,1,1,0
482593773,482592677,31044075,49.078753500000005,2.2543773,-0.78573674,-2.1810234,2.1615405,-0.0069100135,-0.00015225113,0.25713933,0.027449334,0.020106848,0.015179025,-0.05847156,-0.036898524,0.010050106,0.041895274,-0.09029968,-1.7776872,1.3219888,-0.51623803,0.01776818,99.7061,0.1,0.36237934,0.39238903,0.14387032,0.10501707,inf,inf,inf,inf,1,1,1,1,3,1,3,2,4,1,1,1,0
482604065,482602685,31044075,49.078753500000005,2.2543773,-0.784636,-2.1808999,2.1608815,-0.0069100135,-0.00015225113,0.25713933,0.025904782,0.029594764,-0.0015273815,-0.07506611,-0.036898524,0.010050106,0.041895274,-1.251265,1.0287515,-1.0032955,-0.51580685,0.01776818,99.7061,0.1,0.36323267,0.39306432,0.14435363,0.10520519,inf,inf,inf,inf,1,1,1,1,3,1,3,2,4,1,1,1,0
