timestamp,timestamp_sample,ref_timestamp,ref_lat,ref_lon,x,y,z,delta_xy[0],delta_xy[1],delta_z,vx,vy,vz,z_deriv,delta_vxy[0],delta_vxy[1],delta_vz,ax,ay,az,heading,delta_heading,ref_alt,dist_bottom,eph,epv,evh,evv,vxy_max,vz_max,hagl_min,hagl_max,xy_valid,z_valid,v_xy_valid,v_z_valid,xy_reset_counter,z_reset_counter,vxy_reset_counter,vz_reset_counter,heading_reset_counter,xy_global,z_global,dist_bottom_valid,dist_bottom_sensor_bitfield
535954084,535951974,31044075,49.078753500000005,2.2543773,-1.0558736,-2.2987883,1.8269758,-0.0069100135,-0.00015225113,0.25713933,-0.026275607,-0.008309046,0.015283418,0.013805287,-0.036898524,0.010050106,0.041895274,-0.001616948,-0.027306695,0.015844777,-0.556265,-0.112117834,99.7061,0.1,0.37755617,0.39132395,0.14176221,0.103232294,inf,inf,inf,inf,1,1,1,1,3,1,3,2,5,1,1,1,0
535964282,535961975,31044075,49.078753500000005,2.2543773,-1.056143,-2.299316,1.8269494,-0.0069100135,-0.00015225113,0.25713933,-0.026147388,-0.008305738,0.015172486,0.013549595,-0.036898524,0.010050106,0.041895274,0.009613574,0.012924809,-0.0102805,-0.55626553,-0.112117834,99.7061,0.1,0.37834004,0.38954633,0.14220966,0.103155434,inf,inf,inf,inf,1,1,1,1,3,1,3,2,5,1,1,1,0
535974084,535971982,31044075,49.078753500000005,2.2543773,-1.0564102,-2.2998273,1.826927,-0.0069100135,-0.00015225113,0.25713933,-0.026099265,-0.008450412,0.01513347,0.013372565,-0.036898524,0.010050106,0.041895274,-0.0059959777,-0.005287255,0.008775454,-0.55624676,-0.112117834,99.7061,0.1,0.37912866,0.39020216,0.14265873,0.10333921,inf,inf,inf,inf,1,1,1,1,3,1,3,2,5,1,1,1,0
535983708,535981990,31044075,49.078753500000005,2.2543773,-1.056676,-2.300323,1.8269087,-0.0069100135,-0.00015225113,0.25713933,-0.026109643,-0.0084342975,0.015035145,0.013142767,-0.036898524,0.010050106,0.041895274,-0.005215441,0.00050557853,0.003210596,-0.55624044,-0.112117834,99.7061,0.1,0.37992206,0.3908601,0.14310822,0.10352307,inf,inf,inf,inf,1,1,1,1,3,1,3,2,5,1,1,1,0
535994422,535991996,31044075,49.078753500000005,2.2543773,-1.0569408,-2.3008022,1.8268938,-0.0069100135,-0.00015225113,0.25713933,-0.026264021,-0.0082042515,0.014804475,0.01278688,-0.036898524,0.010050106,0.041895274,-0.044585902,0.036720682,-0.025891071,-0.55623454,-0.112117834,99.7061,0.1,0.38072035,0.39152023,0.14355862,0.10370699,inf,inf,inf,inf,1,1,1,1,3,1,3,2,5,1,1,1,0
536003692,536002004,31044075,49.078753500000005,2.2543773,-1.0572028,-2.301266,1.8268827,-0.0069100135,-0.00015225113,0.25713933,-0.026073115,-0.008178915,0.014862876,0.012726161,-0.036898524,0.010050106,0.041895274,-0.06988958,0.03972297,0.002920199,-0.55616736,-0.112117834,99.7061,0.1,0.3815234,0.39218247,0.14400926,0.10389099,inf,inf,inf,inf,1,1,1,1,3,1,3,2,5,1,1,1,0
536014660,536012013,31044075,49.078753500000005,2.2543773,-1.0574653,-2.3017163,1.826866,-0.0069100135,-0.00015225113,0.25713933,-0.026124587,-0.008197678,0.014619996,0.012360928,-0.036898524,0.010050106,0.041895274,-0.0018103303,0.09419114,-0.024434226,-0.5560708,-0.112117834,99.7061,0.1,0.3823313,0.39039543,0.1444607,0.1038098,inf,inf,inf,inf,1,1,1,1,3,1,3,2,5,1,1,1,0
536023810,536022019,31044075,49.078753500000005,2.2543773,-1.0577286,-2.3021533,1.8268529,-0.0069100135,-0.00015225113,0.25713933,-0.026486909,-0.008669132,0.014821863,0.012446517,-0.036898524,0.010050106,0.041895274,-0.03944677,-0.02662195,0.05164756,-0.5560614,-0.112117834,99.7061,0.1,0.38314408,0.39105782,0.14491345,0.103994004,inf,inf,inf,inf,1,1,1,1,3,1,3,2,5,1,1,1,0
536034194,536032027,31044075,49.078753500000005,2.2543773,-1.0579923,-2.3025765,1.8268456,-0.0069100135,-0.00015225113,0.25713933,-0.026082136,-0.008158547,0.014534341,0.012048572,-0.036898524,0.010050106,0.041895274,0.09012663,0.06848779,-0.065708965,-0.5559369,-0.112117834,99.7061,0.1,0.38396177,0.3917224,0.14536723,0.10417827,inf,inf,inf,inf,1,1,1,1,3,1,3,2,5,1,1,1,0
536043955,536042032,31044075,49.078753500000005,2.2543773,-1.0582479,-2.3029816,1.8268391,-0.0069100135,-0.00015225113,0.25713933,-0.024944052,-0.008446073,0.014727125,0.012136714,-0.036898524,0.010050106,0.041895274,0.18676175,-0.17453475,0.113134585,-0.5557659,-0.112117834,99.7061,0.1,0.38478434,0.39238915,0.145821,0.104362614,inf,inf,inf,inf,1,1,1,1,3,1,3,2,5,1,1,1,0
536055322,536052040,31044075,49.078753500000005,2.2543773,-1.0584973,-2.3036985,1.8266644,-0.0069100135,-0.00015225113,0.25713933,-0.02570195,-0.008239931,0.015066989,0.012197383,-0.036898524,0.010050106,0.041895274,0.2905546,0.110016525,0.19566134,-0.5556788,-0.112117834,99.7061,0.1,0.36917892,0.38889942,0.1372332,0.101834774,inf,inf,inf,inf,1,1,1,1,3,1,3,2,5,1,1,1,0
536064052,536062256,31044075,49.078753500000005,2.2543773,-1.0587497,-2.304397,1.8264998,-0.0069100135,-0.00015225113,0.25713933,-0.026971664,-0.009534187,0.014409546,0.011273973,-0.036898524,0.010050106,0.041895274,-0.1961907,-0.11512297,0.13639231,-0.5556594,-0.112117834,99.7061,0.1,0.36991665,0.38954294,0.1376737,0.10201756,inf,inf,inf,inf,1,1,1,1,3,1,3,2,5,1,1,1,0
536074626,536072214,31044075,49.078753500000005,2.2543773,-1.059006,-2.305077,1.8263777,-0.0069100135,-0.00015225113,0.25713933,-0.02605435,-0.009885519,0.015202633,0.011848547,-0.036898524,0.010050106,0.041895274,0.43192995,-0.0892136,0.21171282,-0.55571914,-0.112117834,99.7061,0.1,0.37065893,0.38778627,0.13811512,0.10194875,inf,inf,inf,inf,1,1,1,1,3,1,3,2,5,1,1,1,0
536084174,536082172,31044075,49.078753500000005,2.2543773,-1.0592542,-2.305734,1.8262631,-0.0069100135,-0.00015225113,0.25713933,-0.02666352,-0.00933319,0.014058865,0.01049713,-0.036898524,0.010050106,0.041895274,0.06944539,-0.012889436,-0.024881713,-0.5560735,-0.112117834,99.7061,0.1,0.3714058,0.38843003,0.13855723,0.102131754,inf,inf,inf,inf,1,1,1,1,3,1,3,2,5,1,1,1,0
536094065,536092134,31044075,49.078753500000005,2.2543773,-1.0595049,-2.3063745,1.8261515,-0.0069100135,-0.00015225113,0.25713933,-0.028320417,-0.010666963,0.013987454,0.010228344,-0.036898524,0.010050106,0.041895274,-0.35047182,-0.15442343,0.019135306,-0.5565437,-0.112117834,99.7061,0.1,0.37215734,0.38907588,0.13900033,0.10231482,inf,inf,inf,inf,1,1,1,1,3,1,3,2,5,1,1,1,0
536104268,536102093,31044075,49.078753500000005,2.2543773,-1.0597562,-2.3070014,1.8260468,-0.0069100135,-0.00015225113,0.25713933,-0.027360054,-0.010571147,0.013939149,0.009992721,-0.036898524,0.010050106,0.041895274,-0.15130301,0.012581982,0.022030557,-0.55702573,-0.112117834,99.7061,0.1,0.37291354,0.38972387,0.1394446,0.10249796,inf,inf,inf,inf,1,1,1,1,3,1,3,2,5,1,1,1,0
536114093,536112085,31044075,49.078753500000005,2.2543773,-1.0600029,-2.307605,1.8259472,-0.0069100135,-0.00015225113,0.25713933,-0.026358843,-0.010458814,0.013433091,0.009308889,-0.036898524,0.010050106,0.041895274,0.07128461,-0.09491475,-0.036808293,-0.55740285,-0.112117834,99.7061,0.1,0.3736744,0.39037395,0.13988861,0.10268118,inf,inf,inf,inf,1,1,1,1,3,1,3,2,5,1,1,1,0
536124417,536122093,31044075,49.078753500000005,2.2543773,-1.0602391,-2.308182,1.8257858,-0.0069100135,-0.00015225113,0.25713933,-0.025627399,-0.009096279,0.013783854,0.009419587,-0.036898524,0.010050106,0.041895274,-0.00622938,0.015332977,-0.054921508,-0.55762666,-0.112117834,99.7061,0.1,0.37443992,0.38860843,0.14033449,0.10260824,inf,inf,inf,inf,1,1,1,1,3,1,3,2,5,1,1,1,0
536134083,536132101,31044075,49.078753500000005,2.2543773,-1.0604684,-2.3087418,1.8256329,-0.0069100135,-0.00015225113,0.25713933,-0.025279073,-0.0095960125,0.013435158,0.008842857,-0.036898524,0.010050106,0.041895274,-0.06995938,0.053742435,-0.10061438,-0.5576267,-0.112117834,99.7061,0.1,0.3752102,0.3892587,0.14077935,0.1027917,inf,inf,inf,inf,1,1,1,1,3,1,3,2,5,1,1,1,0
536144175,536142108,31044075,49.078753500000005,2.2543773,-1.0606939,-2.309284,1.8254887,-0.0069100135,-0.00015225113,0.25713933,-0.024924647,-0.009945532,0.013782221,0.008973813,-0.036898524,0.010050106,0.041895274,-0.03918531,-0.091246754,-0.012909902,-0.55744505,-0.112117834,99.7061,0.1,0.37598518,0.38991114,0.14122686,0.102975175,inf,inf,inf,inf,1,1,1,1,3,1,3,2,5,1,1,1,0
536153864,536152117,31044075,49.078753500000005,2.2543773,-1.0609186,-2.3098047,1.8253492,-0.0069100135,-0.00015225113,0.25713933,-0.025112074,-0.008660143,0.013005157,0.007991815,-0.036898524,0.010050106,0.041895274,-0.056918144,0.070044115,-0.06178486,-0.55715615,-0.112117834,99.7061,0.1,0.37676486,0.39056572,0.14167316,0.10315875,inf,inf,inf,inf,1,1,1,1,3,1,3,2,5,1,1,1,0
536164278,536162124,31044075,49.078753500000005,2.2543773,-1.0611434,-2.310303,1.8252113,-0.0069100135,-0.00015225113,0.25713933,-0.025045138,-0.008611786,0.012689075,0.007481702,-0.036898524,0.010050106,0.041895274,0.0004603899,-0.012032604,0.046527095,-0.5568618,-0.112117834,99.7061,0.1,0.37754935,0.3912224,0.14211957,0.10334242,inf,inf,inf,inf,1,1,1,1,3,1,3,2,5,1,1,1,0
536173875,536172133,31044075,49.078753500000005,2.2543773,-1.0613651,-2.3107946,1.824944,-0.0069100135,-0.00015225113,0.25713933,-0.0243969,-0.0103302775,0.013973872,0.008438181,-0.036898524,0.010050106,0.041895274,0.089034945,-0.16528429,0.18644048,-0.556675,-0.112117834,99.7061,0.1,0.3783386,0.38944772,0.14257784,0.103265315,inf,inf,inf,inf,1,1,1,1,3,1,3,2,5,1,1,1,0
536184532,536182141,31044075,49.078753500000005,2.2543773,-1.0615809,-2.3112874,1.8246919,-0.0069100135,-0.00015225113,0.25713933,-0.024296716,-0.0115081845,0.013246885,0.00739941,-0.036898524,0.010050106,0.041895274,-0.01265349,-0.033802446,0.0035792508,-0.55658215,-0.112117834,99.7061,0.1,0.37913266,0.39010456,0.14302218,0.10344917,inf,inf,inf,inf,1,1,1,1,3,1,3,2,5,1,1,1,0
536193366,536192147,31044075,49.078753500000005,2.2543773,-1.0618026,-2.311759,1.824447,-0.0069100135,-0.00015225113,0.25713933,-0.026225213,-0.009363316,0.012255426,0.0061119753,-0.036898524,0.010050106,0.041895274,-0.3207124,0.24435782,-0.16935262,-0.5565716,-0.112117834,99.7061,0.1,0.37993157,0.3907636,0.14347455,0.1036331,inf,inf,inf,inf,1,1,1,1,3,1,3,2,5,1,1,1,0
536203846,536202153,31044075,49.078753500000005,2.2543773,-1.0620401,-2.3122046,1.8242023,-0.0069100135,-0.00015225113,0.25713933,-0.02707674,-0.010595186,0.01115191,0.004727982,-0.036898524,0.010050106,0.041895274,-0.123245165,-0.3791043,-0.11879307,-0.55669475,-0.112117834,99.7061,0.1,0.38073528,0.39142478,0.1439237,0.1038172,inf,inf,inf,inf,1,1,1,1,3,1,3,2,5,1,1,1,0
536213511,536212165,31044075,49.078753500000005,2.2543773,-1.0622689,-2.3126578,1.8239694,-0.0069100135,-0.00015225113,0.25713933,-0.025602235,-0.013437175,0.011560331,0.0048706,-0.036898524,0.010050106,0.041895274,-0.117033444,-0.5018823,-0.11816319,-0.5569682,-0.112117834,99.7061,0.1,0.38154384,0.3920881,0.14437342,0.104001254,inf,inf,inf,inf,1,1,1,1,3,1,3,2,5,1,1,1,0
536223495,536222168,31044075,49.078753500000005,2.2543773,-1.0624882,-2.3131077,1.8237473,-0.0069100135,-0.00015225113,0.25713933,-0.02588138,-0.0111315,0.012108068,0.005166673,-0.036898524,0.010050106,0.041895274,-0.41881233,0.2978077,0.08870981,-0.557182,-0.112117834,99.7061,0.1,0.38235727,0.39275357,0.1448268,0.10418537,inf,inf,inf,inf,1,1,1,1,3,1,3,2,5,1,1,1,0
536233947,536232176,31044075,49.078753500000005,2.2543773,-1.0627366,-2.3135128,1.8235402,-0.0069100135,-0.00015225113,0.25713933,-0.028477224,-0.009103336,0.009951057,0.0027870843,-0.036898524,0.010050106,0.041895274,-0.06192958,-0.1424342,-0.068743415,-0.5573618,-0.112117834,99.7061,0.1,0.38317558,0.39095908,0.14527835,0.10410166,inf,inf,inf,inf,1,1,1,1,3,1,3,2,5,1,1,1,0
536243516,536242183,31044075,49.078753500000005,2.2543773,-1.0629778,-2.3139102,1.823346,-0.0069100135,-0.00015225113,0.25713933,-0.026483893,-0.011289919,0.011395455,0.004021354,-0.036898524,0.010050106,0.041895274,-0.011543677,-0.4065381,0.024388501,-0.5576061,-0.112117834,99.7061,0.1,0.38399878,0.3916247,0.14573312,0.104286015,inf,inf,inf,inf,1,1,1,1,3,1,3,2,5,1,1,1,0
536255285,536252190,31044075,49.078753500000005,2.2543773,-1.0632291,-2.3146815,1.8229901,-0.0069100135,-0.00015225113,0.25713933,-0.024955574,-0.01020385,0.011089993,0.0033304433,-0.036898524,0.010050106,0.041895274,-0.21565369,0.60961246,-0.29199043,-0.5576288,-0.112117834,99.7061,0.1,0.3684229,0.38815552,0.13715543,0.101763986,inf,inf,inf,inf,1,1,1,1,3,1,3,2,5,1,1,1,0
536263416,536262193,31044075,49.078753500000005,2.2543773,-1.063511,-2.315401,1.8226222,-0.0069100135,-0.00015225113,0.25713933,-0.02905715,-0.010812268,0.009370772,0.0012455024,-0.036898524,0.010050106,0.041895274,0.008641486,-0.5551463,0.23757207,-0.557628,-0.112117834,99.7061,0.1,0.36916128,0.388798,0.13759863,0.10194673,inf,inf,inf,inf,1,1,1,1,3,1,3,2,5,1,1,1,0
536273535,536272201,31044075,49.078753500000005,2.2543773,-1.0637771,-2.316101,1.822278,-0.0069100135,-0.00015225113,0.25713933,-0.026416453,-0.009740631,0.01199721,0.0035255065,-0.036898524,0.010050106,0.041895274,-0.17069775,-0.13923447,0.49925566,-0.5576395,-0.112117834,99.7061,0.1,0.36990428,0.3894426,0.13804075,0.102129586,inf,inf,inf,inf,1,1,1,1,3,1,3,2,5,1,1,1,0
536283870,536282207,31044075,49.078753500000005,2.2543773,-1.0640397,-2.316773,1.8220158,-0.0069100135,-0.00015225113,0.25713933,-0.02788477,-0.00720318,0.006603472,-0.002126755,-0.036898524,0.010050106,0.041895274,-0.40690494,0.49834234,-0.8214231,-0.5575575,-0.112117834,99.7061,0.1,0.37065187,0.3876888,0.13847768,0.102060504,inf,inf,inf,inf,1,1,1,1,3,1,3,2,5,1,1,1,0
536293516,536292217,31044075,49.078753500000005,2.2543773,-1.0643097,-2.3174236,1.821737,-0.0069100135,-0.00015225113,0.25713933,-0.024112854,-0.00840018,0.008211901,-0.0007621506,-0.036898524,0.010050106,0.041895274,0.9345672,0.4218324,0.22978029,-0.5575558,-0.112117834,99.7061,0.1,0.3714041,0.3883336,0.13892263,0.10224363,inf,inf,inf,inf,1,1,1,1,3,1,3,2,5,1,1,1,0
536303529,536302228,31044075,49.078753500000005,2.2543773,-1.0645715,-2.3180432,1.8214928,-0.0069100135,-0.00015225113,0.25713933,-0.030513806,-0.0073602227,0.0092497775,4.5952736e-05,-0.036898524,0.010050106,0.041895274,-0.88510877,0.22488874,-0.24738443,-0.557505,-0.112117834,99.7061,0.1,0.372161,0.3889805,0.13936953,0.10242674,inf,inf,inf,inf,1,1,1,1,3,1,3,2,5,1,1,1,0
536313623,536312232,31044075,49.078753500000005,2.2543773,-1.0648562,-2.318638,1.8212422,-0.0069100135,-0.00015225113,0.25713933,-0.027219635,-0.0074482025,0.007109733,-0.0023102018,-0.036898524,0.010050106,0.041895274,0.44319826,0.114556685,-0.11049189,-0.55743355,-0.112117834,99.7061,0.1,0.37292257,0.38962957,0.13981731,0.102610044,inf,inf,inf,inf,1,1,1,1,3,1,3,2,5,1,1,1,0
536323506,536322440,31044075,49.078753500000005,2.2543773,-1.0651056,-2.3192148,1.8210171,-0.0069100135,-0.00015225113,0.25713933,-0.02854982,-0.007253631,0.00926849,-0.0003545246,-0.036898524,0.010050106,0.041895274,-1.1557811,0.14308195,-0.21285878,-0.55738765,-0.112117834,99.7061,0.1,0.37368882,0.39028075,0.14026037,0.10279344,inf,inf,inf,inf,1,1,1,1,3,1,3,2,5,1,1,1,0
536334318,536332434,31044075,49.078753500000005,2.2543773,-1.0653799,-2.3197567,1.8207308,-0.0069100135,-0.00015225113,0.25713933,-0.02663461,-0.0049444153,0.0045932624,-0.0052663493,-0.036898524,0.010050106,0.041895274,0.49726725,0.30354667,-0.46333972,-0.55747896,-0.112117834,99.7061,0.1,0.37445983,0.388518,0.14070378,0.10272001,inf,inf,inf,inf,1,1,1,1,3,1,3,2,5,1,1,1,0
536343428,536342361,31044075,49.078753500000005,2.2543773,-1.0656284,-2.320271,1.8204558,-0.0069100135,-0.00015225113,0.25713933,-0.024920003,-0.005536896,0.008618217,-0.0014638794,-0.036898524,0.010050106,0.041895274,0.3032576,-0.033467874,0.253792,-0.5575351,-0.112117834,99.7061,0.1,0.37523553,0.3891694,0.14115809,0.102903485,inf,inf,inf,inf,1,1,1,1,3,1,3,2,5,1,1,1,0
536353855,536352318,31044075,49.078753500000005,2.2543773,-1.065905,-2.3207643,1.8201927,-0.0069100135,-0.00015225113,0.25713933,-0.02286383,-0.0026158812,0.0074125975,-0.0028782003,-0.036898524,0.010050106,0.041895274,2.229832,0.6458928,0.24920669,-0.55769444,-0.112117834,99.7061,0.1,0.37601596,0.3898229,0.1415994,0.10308712,inf,inf,inf,inf,1,1,1,1,3,1,3,2,5,1,1,1,0
536363383,536362279,31044075,49.078753500000005,2.2543773,-1.06614,-2.321239,1.8199352,-0.0069100135,-0.00015225113,0.25713933,-0.021572474,-0.0033361062,0.006833189,-0.003653228,-0.036898524,0.010050106,0.041895274,1.1694578,0.6707924,0.13696682,-0.55775565,-0.112117834,99.7061,0.1,0.3768012,0.39047855,0.14204788,0.103270695,inf,inf,inf,inf,1,1,1,1,3,1,3,2,5,1,1,1,0
536373613,536372273,31044075,49.078753500000005,2.2543773,-1.0663952,-2.3217187,1.819679,-0.0069100135,-0.00015225113,0.25713933,-0.019426385,-0.0003260671,0.005288789,-0.0053806547,-0.036898524,0.010050106,0.041895274,2.7618067,2.3314514,-0.014584291,-0.5578716,-0.112117834,99.7061,0.1,0.3775912,0.39113632,0.14250223,0.103454545,inf,inf,inf,inf,1,1,1,1,3,1,3,2,5,1,1,1,0
536383567,536382279,31044075,49.078753500000005,2.2543773,-1.066622,-2.3221605,1.8194382,-0.0069100135,-0.00015225113,0.25713933,-0.02375132,-0.004209527,0.006078206,-0.0047619347,-0.036898524,0.010050106,0.041895274,0.56138724,0.5701278,-0.1354247,-0.5578706,-0.112117834,99.7061,0.1,0.378386,0.39179626,0.14294137,0.10363823,inf,inf,inf,inf,1,1,1,1,3,1,3,2,5,1,1,1,0
536393860,536392288,31044075,49.078753500000005,2.2543773,-1.0668695,-2.3226237,1.8190675,-0.0069100135,-0.00015225113,0.25713933,-0.019077582,-0.0009757969,0.0042735767,-0.006848014,-0.036898524,0.010050106,0.041895274,2.3666952,2.6246166,0.13245897,-0.5579246,-0.112117834,99.7061,0.1,0.37918556,0.3900141,0.1434112,0.10355852,inf,inf,inf,inf,1,1,1,1,3,1,3,2,5,1,1,1,0
536403534,536402293,31044075,49.078753500000005,2.2543773,-1.0670815,-2.323052,1.8187082,-0.0069100135,-0.00015225113,0.25713933,-0.028904578,-0.0069910437,0.0025676924,-0.008818486,-0.036898524,0.010050106,0.041895274,-1.4651338,0.35923633,-0.47517,-0.55794823,-0.112117834,99.7061,0.1,0.37999004,0.39067423,0.14385548,0.10374248,inf,inf,inf,inf,1,1,1,1,3,1,3,2,5,1,1,1,0
536413597,536412300,31044075,49.078753500000005,2.2543773,-1.0673041,-2.3234868,1.8183507,-0.0069100135,-0.00015225113,0.25713933,-0.021722358,-0.0057092397,0.0031541882,-0.008480584,-0.036898524,0.010050106,0.041895274,0.13965826,0.97969127,-0.04401513,-0.55809593,-0.112117834,99.7061,0.1,0.38079938,0.39133647,0.14430314,0.10392665,inf,inf,inf,inf,1,1,1,1,3,1,3,2,5,1,1,1,0
536423596,536422307,31044075,49.078753500000005,2.2543773,-1.0675302,-2.3239264,1.8180065,-0.0069100135,-0.00015225113,0.25713933,-0.032643583,-0.016730279,0.0014281026,-0.010439688,-0.036898524,0.010050106,0.041895274,-2.2479722,-1.4542614,-0.52781343,-0.55821097,-0.112117834,99.7061,0.1,0.38161355,0.39200085,0.14476275,0.10411072,inf,inf,inf,inf,1,1,1,1,3,1,3,2,5,1,1,1,0
536433878,536432318,31044075,49.078753500000005,2.2543773,-1.0677406,-2.3243203,1.8176839,-0.0069100135,-0.00015225113,0.25713933,-0.024659516,-0.007367641,0.0045569553,-0.007529009,-0.036898524,0.010050106,0.041895274,-1.6073982,-1.0587095,-0.1612405,-0.55833226,-0.112117834,99.7061,0.1,0.38243264,0.39266744,0.14521469,0.10429495,inf,inf,inf,inf,1,1,1,1,3,1,3,2,5,1,1,1,0
536443876,536442322,31044075,49.078753500000005,2.2543773,-1.0679833,-2.324722,1.8172369,-0.0069100135,-0.00015225113,0.25713933,-0.021946503,-0.0072865714,0.0064355447,-0.006006554,-0.036898524,0.010050106,0.041895274,1.3433717,0.73880905,0.15583211,-0.55837417,-0.112117834,99.7061,0.1,0.3832566,0.39087558,0.14568523,0.10421076,inf,inf,inf,inf,1,1,1,1,3,1,3,2,5,1,1,1,0
536454641,536452330,31044075,49.078753500000005,2.2543773,-1.0682622,-2.3256602,1.8167977,-0.0069100135,-0.00015225113,0.25713933,-0.026377596,-0.009533773,0.007378405,-0.005408238,-0.036898524,0.010050106,0.041895274,-1.3196837,-1.2246108,0.62346673,-0.55839765,-0.112117834,99.7061,0.1,0.3676883,0.38742635,0.13709655,0.10169439,inf,inf,inf,inf,1,1,1,1,3,1,3,2,5,1,1,1,0
536463651,536462336,31044075,49.078753500000005,2.2543773,-1.0685774,-2.3266475,1.8163866,-0.0069100135,-0.00015225113,0.25713933,-0.017310852,-0.0039240913,0.0070526213,-0.006058397,-0.036898524,0.010050106,0.041895274,2.6239378,3.4511251,0.1733081,-0.55837166,-0.112117834,99.7061,0.1,0.36842746,0.3880678,0.13753937,0.101877004,inf,inf,inf,inf,1,1,1,1,3,1,3,2,5,1,1,1,0
536473691,536472344,31044075,49.078753500000005,2.2543773,-1.0688794,-2.3276,1.8159918,-0.0069100135,-0.00015225113,0.25713933,-0.032183077,-0.025573468,0.0069854953,-0.0064305877,-0.036898524,0.010050106,0.041895274,-1.2830484,-2.648833,0.096467085,-0.55856067,-0.112117834,99.7061,0.1,0.36917123,0.3887114,0.13798057,0.102059886,inf,inf,inf,inf,1,1,1,1,3,1,3,2,5,1,1,1,0
536483979,536482351,31044075,49.078753500000005,2.2543773,-1.0691395,-2.328505,1.8156216,-0.0069100135,-0.00015225113,0.25713933,-0.024511406,-0.011444306,0.004976291,-0.008726213,-0.036898524,0.010050106,0.041895274,-1.9171847,-1.2312969,-0.88683605,-0.5588071,-0.112117834,99.7061,0.1,0.36991963,0.38935706,0.13842747,0.10224265,inf,inf,inf,inf,1,1,1,1,3,1,3,2,5,1,1,1,0
536493523,536492358,31044075,49.078753500000005,2.2543773,-1.0694373,-2.3294299,1.8152493,-0.0069100135,-0.00015225113,0.25713933,-0.019919949,-0.010682819,0.0048075025,-0.009163521,-0.036898524,0.010050106,0.041895274,1.884895,2.3484826,-0.47444996,-0.55876136,-0.112117834,99.7061,0.1,0.37067264,0.39000487,0.13886665,0.10242595,inf,inf,inf,inf,1,1,1,1,3,1,3,2,5,1,1,1,0
536504353,536502365,31044075,49.078753500000005,2.2543773,-1.0697149,-2.330263,1.8148319,-0.0069100135,-0.00015225113,0.25713933,-0.029078126,-0.016461736,0.008683593,-0.0055931224,-0.036898524,0.010050106,0.041895274,-1.0186692,-1.8058583,0.9131032,-0.558772,-0.112117834,99.7061,0.1,0.3714303,0.38824388,0.13931642,0.10235421,inf,inf,inf,inf,1,1,1,1,3,1,3,2,5,1,1,1,0
536513525,536512373,31044075,49.078753500000005,2.2543773,-1.0700326,-2.33111,1.8144281,-0.0069100135,-0.00015225113,0.25713933,-0.026677355,-0.0042606965,0.0036529906,-0.010910424,-0.036898524,0.010050106,0.041895274,0.45855057,2.896472,-0.15024099,-0.5590714,-0.112117834,99.7061,0.1,0.37219268,0.38889188,0.13976601,0.10253795,inf,inf,inf,inf,1,1,1,1,3,1,3,2,5,1,1,1,0
536523783,536522379,31044075,49.078753500000005,2.2543773,-1.070364,-2.3319423,1.8140564,-0.0069100135,-0.00015225113,0.25713933,-0.03457714,-0.028179904,0.005242185,-0.009589429,-0.036898524,0.010050106,0.041895274,-1.0479397,-2.6152725,-0.8518347,-0.55920583,-0.112117834,99.7061,0.1,0.37295973,0.389542,0.14020824,0.10272104,inf,inf,inf,inf,1,1,1,1,3,1,3,2,5,1,1,1,0
536533498,536532387,31044075,49.078753500000005,2.2543773,-1.0706602,-2.332705,1.8136826,-0.0069100135,-0.00015225113,0.25713933,-0.02951403,-0.0170448,0.006710324,-0.008371921,-0.036898524,0.010050106,0.041895274,-1.6803993,-3.5183492,0.3961662,-0.559209,-0.112117834,99.7061,0.1,0.37373152,0.39019427,0.14065924,0.10290521,inf,inf,inf,inf,1,1,1,1,3,1,3,2,5,1,1,1,0
536543688,536542394,31044075,49.078753500000005,2.2543773,-1.0709802,-2.3335326,1.8133432,-0.0069100135,-0.00015225113,0.25713933,-0.016739676,-0.0015115432,0.007944701,-0.007371259,-0.036898524,0.010050106,0.041895274,3.5912223,5.6829543,0.07609571,-0.55915767,-0.112117834,99.7061,0.1,0.37450805,0.39084864,0.14109439,0.10308806,inf,inf,inf,inf,1,1,1,1,3,1,3,2,5,1,1,1,0
536553971,536552401,31044075,49.078753500000005,2.2543773,-1.0712932,-2.3342705,1.8129944,-0.0069100135,-0.00015225113,0.25713933,-0.03416136,-0.024450056,0.009767646,-0.0057666665,-0.036898524,0.010050106,0.041895274,-0.4973684,-2.3090813,1.6384224,-0.5593076,-0.112117834,99.7061,0.1,0.37528932,0.3890786,0.14153391,0.10301229,inf,inf,inf,inf,1,1,1,1,3,1,3,2,5,1,1,1,0
536563641,536562410,31044075,49.078753500000005,2.2543773,-1.0715883,-2.3349602,1.8126513,-0.0069100135,-0.00015225113,0.25713933,-0.027821036,-0.010426589,0.0034564573,-0.012280517,-0.036898524,0.010050106,0.041895274,-1.0198898,-1.4971033,0.24181838,-0.5594667,-0.112117834,99.7061,0.1,0.37607527,0.38973317,0.14197773,0.10319617,inf,inf,inf,inf,1,1,1,1,3,1,3,2,5,1,1,1,0
536573721,536572417,31044075,49.078753500000005,2.2543773,-1.0719118,-2.3356874,1.812351,-0.0069100135,-0.00015225113,0.25713933,-0.025815165,-0.008552813,0.0006248542,-0.015299546,-0.036898524,0.010050106,0.041895274,1.5067723,2.8977127,-2.4268796,-0.55953085,-0.112117834,99.7061,0.1,0.37686604,0.39038986,0.1424272,0.10337945,inf,inf,inf,inf,1,1,1,1,3,1,3,2,5,1,1,1,0
536583908,536582624,31044075,49.078753500000005,2.2543773,-1.0722246,-2.33635,1.8120235,-0.0069100135,-0.00015225113,0.25713933,-0.03348569,-0.026843308,0.008929593,-0.0071677146,-0.036898524,0.010050106,0.041895274,-1.1474383,-4.1653895,1.3575453,-0.5596359,-0.112117834,99.7061,0.1,0.3776616,0.39104873,0.14287502,0.10356462,inf,inf,inf,inf,1,1,1,1,3,1,3,2,5,1,1,1,0
536593872,536592578,31044075,49.078753500000005,2.2543773,-1.072546,-2.3370385,1.8117125,-0.0069100135,-0.00015225113,0.25713933,-0.03024545,-0.005375322,0.0050744666,-0.011181563,-0.036898524,0.010050106,0.041895274,-0.37754682,2.1539233,0.8383828,-0.5598024,-0.112117834,99.7061,0.1,0.37846196,0.39170972,0.1433327,0.10374767,inf,inf,inf,inf,1,1,1,1,3,1,3,2,5,1,1,1,0
536604191,536602535,31044075,49.078753500000005,2.2543773,-1.0728736,-2.337758,1.811737,-0.0069100135,-0.00015225113,0.25713933,-0.028920084,-0.022454835,-0.00247369,-0.018557286,-0.036898524,0.010050106,0.041895274,0.71896785,1.2675718,-2.2585592,-0.5599277,-0.112117834,99.7061,0.1,0.3792672,0.38993022,0.14378352,0.1036675,inf,inf,inf,inf,1,1,1,1,3,1,3,2,5,1,1,1,0
536613780,536612496,31044075,49.078753500000005,2.2543773,-1.0732079,-2.338386,1.8117386,-0.0069100135,-0.00015225113,0.25713933,-0.03672827,-0.026287924,0.008297648,-0.0076145884,-0.036898524,0.010050106,0.041895274,-1.1829399,-4.6195197,1.1873671,-0.5600582,-0.112117834,99.7061,0.1,0.38007727,0.39059138,0.14421985,0.103852056,inf,inf,inf,inf,1,1,1,1,3,1,3,2,5,1,1,1,0
536623776,536622457,31044075,49.078753500000005,2.2543773,-1.073546,-2.3390784,1.8117496,-0.0069100135,-0.00015225113,0.25713933,-0.028633505,-0.0039073136,0.006439807,-0.009302276,-0.036898524,0.010050106,0.041895274,0.68749386,5.105169,1.3666283,-0.5600908,-0.112117834,99.7061,0.1,0.3808922,0.39125472,0.14469135,0.10403559,inf,inf,inf,inf,1,1,1,1,3,1,3,2,5,1,1,1,0
536633872,536632459,31044075,49.078753500000005,2.2543773,-1.0739083,-2.3397841,1.8117744,-0.0069100135,-0.00015225113,0.25713933,-0.03353873,-0.03353518,0.0008464381,-0.014726468,-0.036898524,0.010050106,0.041895274,0.98090976,-0.39076963,-1.063775,-0.5602447,-0.112117834,99.7061,0.1,0.38171205,0.3919202,0.14513631,0.10422112,inf,inf,inf,inf,1,1,1,1,3,1,3,2,5,1,1,1,0
536644482,536642468,31044075,49.078753500000005,2.2543773,-1.0743363,-2.3407156,1.8117287,-0.0069100135,-0.00015225113,0.25713933,-0.03615673,-0.03864113,0.0030998318,-0.012365312,-0.036898524,0.010050106,0.041895274,-1.4591004,-6.420703,-0.42525455,-0.56054205,-0.112117834,99.7061,0.1,0.36630595,0.3884492,0.1366531,0.101703286,inf,inf,inf,inf,1,1,1,1,3,1,3,2,5,1,1,1,0
536654243,536652474,31044075,49.078753500000005,2.2543773,-1.0747837,-2.3416927,1.8116958,-0.0069100135,-0.00015225113,0.25713933,-0.03356903,-0.00845367,0.0046797036,-0.010676046,-0.036898524,0.010050106,0.041895274,0.12119912,5.160483,-0.13490433,-0.56060755,-0.112117834,99.7061,0.1,0.36704192,0.38909158,0.13708895,0.10188496,inf,inf,inf,inf,1,1,1,1,3,1,3,2,5,1,1,1,0
536663806,536662481,31044075,49.078753500000005,2.2543773,-1.0752183,-2.3426607,1.8118029,-0.0069100135,-0.00015225113,0.25713933,-0.03357755,-0.03833432,0.0080795875,-0.0070238025,-0.036898524,0.010050106,0.041895274,0.097332075,-0.14386627,1.1892704,-0.5606579,-0.112117834,99.7061,0.101180434,0.36778244,0.38734204,0.13752124,0.101818636,inf,inf,inf,inf,1,1,1,1,3,1,3,2,5,1,1,1,0
536674156,536672493,31044075,49.078753500000005,2.2543773,-1.0756379,-2.3435497,1.8119009,-0.0069100135,-0.00015225113,0.25713933,-0.03148178,-0.035077963,0.0025412105,-0.012314738,-0.036898524,0.010050106,0.041895274,0.231863,-4.4419117,0.16101792,-0.56098694,-0.112117834,99.7061,0.10114336,0.36852756,0.3879847,0.13798556,0.10200072,inf,inf,inf,inf,1,1,1,1,3,1,3,2,5,1,1,1,0
536683631,536682495,31044075,49.078753500000005,2.2543773,-1.0760578,-2.3444767,1.8120221,-0.0069100135,-0.00015225113,0.25713933,-0.033319645,-0.015080847,0.0032121171,-0.0114012975,-0.036898524,0.010050106,0.041895274,0.12752266,4.4531956,-1.3049479,-0.5610962,-0.112117834,99.7061,0.101036906,0.36927736,0.3886294,0.1384375,0.102183536,inf,inf,inf,inf,1,1,1,1,3,1,3,2,5,1,1,1,0
536693787,536692503,31044075,49.078753500000005,2.2543773,-1.076451,-2.3453808,1.8121444,-0.0069100135,-0.00015225113,0.25713933,-0.033376947,-0.036221813,0.01201174,-0.0023638413,-0.036898524,0.010050106,0.041895274,-1.0109891,-0.004978841,1.2913162,-0.5611861,-0.112117834,99.7061,0.10095835,0.37003183,0.38927627,0.13885596,0.1023676,inf,inf,inf,inf,1,1,1,1,3,1,3,2,5,1,1,1,0
536703808,536702510,31044075,49.078753500000005,2.2543773,-1.0768591,-2.3462262,1.8122549,-0.0069100135,-0.00015225113,0.25713933,-0.024558954,-0.034747474,0.0074843527,-0.006657963,-0.036898524,0.010050106,0.041895274,2.3574848,-3.1348534,1.2506833,-0.5613857,-0.112117834,99.7061,0.100917816,0.3707909,0.38992524,0.13931264,0.10254965,inf,inf,inf,inf,1,1,1,1,3,1,3,2,5,1,1,1,0
536714081,536712520,31044075,49.078753500000005,2.2543773,-1.0772345,-2.347093,1.8125519,-0.0069100135,-0.00015225113,0.25713933,-0.03709384,-0.020084918,0.0023830836,-0.011390162,-0.036898524,0.010050106,0.041895274,-1.6588224,3.2460423,-2.7842617,-0.5616583,-0.112117834,99.7061,0.10408378,0.3715547,0.38816687,0.13978106,0.10247847,inf,inf,inf,inf,1,1,1,1,3,1,3,2,5,1,1,1,0
536723835,536722524,31044075,49.078753500000005,2.2543773,-1.0775781,-2.3479023,1.8128155,-0.0069100135,-0.00015225113,0.25713933,-0.02131388,-0.034236245,0.011329531,-0.002085287,-0.036898524,0.010050106,0.041895274,0.6791399,-1.1828182,0.45009014,-0.56151307,-0.112117834,99.7061,0.10385513,0.37232324,0.38881606,0.14018518,0.10266214,inf,inf,inf,inf,1,1,1,1,3,1,3,2,5,1,1,1,0
536733824,536732533,31044075,49.078753500000005,2.2543773,-1.0779464,-2.3486567,1.8130497,-0.0069100135,-0.00015225113,0.25713933,-0.024828248,-0.025045227,0.015154103,0.002087281,-0.036898524,0.010050106,0.041895274,2.3126032,-1.1218342,3.4674876,-0.56171536,-0.112117834,99.7061,0.103696704,0.37309644,0.3894674,0.14063726,0.1028443,inf,inf,inf,inf,1,1,1,1,3,1,3,2,5,1,1,1,0
536743853,536742542,31044075,49.078753500000005,2.2543773,-1.0782429,-2.3494313,1.8133464,-0.0069100135,-0.00015225113,0.25713933,-0.026309215,-0.018844359,0.0017862563,-0.010942544,-0.036898524,0.010050106,0.041895274,-1.1568043,3.3374388,-2.9160721,-0.56182885,-0.112117834,99.7061,0.103441715,0.37387434,0.39012083,0.14110196,0.103029236,inf,inf,inf,inf,1,1,1,1,3,1,3,2,5,1,1,1,0
536753847,536752547,31044075,49.078753500000005,2.2543773,-1.0785341,-2.350139,1.8136145,-0.0069100135,-0.00015225113,0.25713933,-0.020120934,-0.035148118,0.015164397,0.0027638134,-0.036898524,0.010050106,0.041895274,0.4147699,-3.1024747,0.62642986,-0.56191415,-0.112117834,99.7061,0.103195906,0.37465706,0.3907764,0.14154059,0.103213064,inf,inf,inf,inf,1,1,1,1,3,1,3,2,5,1,1,1,0
536764113,536762553,31044075,49.078753500000005,2.2543773,-1.0788025,-2.350869,1.8138912,-0.0069100135,-0.00015225113,0.25713933,-0.01263105,-0.024558606,0.012895111,0.00084783294,-0.036898524,0.010050106,0.041895274,2.4821641,0.14128934,2.0537474,-0.56191987,-0.112117834,99.7061,0.10380983,0.37544453,0.38900885,0.14198431,0.10313536,inf,inf,inf,inf,1,1,1,1,3,1,3,2,5,1,1,1,0
536773927,536772564,31044075,49.078753500000005,2.2543773,-1.079051,-2.351605,1.8141872,-0.0069100135,-0.00015225113,0.25713933,-0.02637533,-0.031518374,-0.0029302577,-0.014634948,-0.036898524,0.010050106,0.041895274,-1.5736729,0.15606117,-3.924506,-0.56201994,-0.112117834,99.7061,0.103582144,0.37623677,0.3896646,0.14241831,0.10332046,inf,inf,inf,inf,1,1,1,1,3,1,3,2,5,1,1,1,0
536783890,536782568,31044075,49.078753500000005,2.2543773,-1.0792763,-2.3523479,1.8144525,-0.0069100135,-0.00015225113,0.25713933,-0.015112209,-0.037607722,0.016987935,0.005615575,-0.036898524,0.010050106,0.041895274,-0.38375244,-1.6005838,1.4508392,-0.5618492,-0.112117834,99.7061,0.103377104,0.37703377,0.3903225,0.14288826,0.10350401,inf,inf,inf,inf,1,1,1,1,3,1,3,2,5,1,1,1,0
536793798,536792575,31044075,49.078753500000005,2.2543773,-1.0795449,-2.3530917,1.8147047,-0.0069100135,-0.00015225113,0.25713933,-0.019429259,-0.030361576,0.010537549,-0.00051251263,-0.036898524,0.010050106,0.041895274,1.2888477,0.7444869,1.7324772,-0.56192094,-0.112117834,99.7061,0.103158474,0.37783563,0.39098257,0.14333692,0.10368692,inf,inf,inf,inf,1,1,1,1,3,1,3,2,5,1,1,1,0
536804003,536802582,31044075,49.078753500000005,2.2543773,-1.0797708,-2.3538506,1.814971,-0.0069100135,-0.00015225113,0.25713933,-0.024363657,-0.034696784,-0.0024936148,-0.013231036,-0.036898524,0.010050106,0.041895274,-2.2750542,1.4702402,-3.6128457,-0.561937,-0.112117834,99.7061,0.10297489,0.37864235,0.39164478,0.14375356,0.10387179,inf,inf,inf,inf,1,1,1,1,3,1,3,2,5,1,1,1,0
536813700,536812589,31044075,49.078753500000005,2.2543773,-1.0800021,-2.354564,1.8152488,-0.0069100135,-0.00015225113,0.25713933,-0.015296697,-0.04311469,0.02143536,0.011001168,-0.036898524,0.010050106,0.041895274,0.3160883,-2.8304553,1.6350338,-0.5618278,-0.112117834,99.7061,0.102799535,0.37945384,0.39230913,0.14422156,0.10405547,inf,inf,inf,inf,1,1,1,1,3,1,3,2,5,1,1,1,0
536824730,536822598,31044075,49.078753500000005,2.2543773,-1.0802451,-2.3552876,1.8156464,-0.0069100135,-0.00015225113,0.25713933,-0.012846658,-0.026169505,0.012480745,0.0024912285,-0.036898524,0.010050106,0.041895274,2.5048246,2.4719672,2.16879,-0.5617915,-0.112117834,99.7061,0.10615814,0.38027024,0.3905218,0.14469431,0.103972375,inf,inf,inf,inf,1,1,1,1,3,1,3,2,5,1,1,1,0
536833756,536832605,31044075,49.078753500000005,2.2543773,-1.0804511,-2.3560197,1.816097,-0.0069100135,-0.00015225113,0.25713933,-0.024755416,-0.042386558,0.009736138,0.0001757796,-0.036898524,0.010050106,0.041895274,-2.2550218,0.2286423,-2.1091812,-0.56180024,-0.112117834,99.7061,0.10578716,0.3810916,0.3911863,0.1451122,0.104156785,inf,inf,inf,inf,1,1,1,1,3,1,3,2,5,1,1,1,0
536845665,536842802,31044075,49.078753500000005,2.2543773,-1.0807508,-2.3573234,1.8162148,-0.0069100135,-0.00015225113,0.25713933,-0.011729059,-0.051269766,0.019239128,0.009749698,-0.036898524,0.010050106,0.041895274,0.6515643,-3.8548613,0.40394744,-0.5616519,-0.112117834,99.7061,0.1,0.36567375,0.38773397,0.13661978,0.10164397,inf,inf,inf,inf,1,1,1,1,3,1,3,2,5,1,1,1,0
536853858,536852761,31044075,49.078753500000005,2.2543773,-1.0810387,-2.3586416,1.8162749,-0.0069100135,-0.00015225113,0.25713933,-0.017921241,-0.034489445,0.014621683,0.0052036475,-0.036898524,0.010050106,0.041895274,-0.05192291,2.534578,2.1036215,-0.5617934,-0.112117834,99.7061,0.1,0.366411,0.38837543,0.13710782,0.101826295,inf,inf,inf,inf,1,1,1,1,3,1,3,2,5,1,1,1,0
536864011,536862720,31044075,49.078753500000005,2.2543773,-1.0813273,-2.3599665,1.8163952,-0.0069100135,-0.00015225113,0.25713933,-0.02106585,-0.05139048,0.0063165165,-0.0030297071,-0.036898524,0.010050106,0.041895274,-1.3949763,0.5977271,-3.2945988,-0.5617516,-0.112117834,99.7061,0.1,0.367153,0.389019,0.13749938,0.10200955,inf,inf,inf,inf,1,1,1,1,3,1,3,2,5,1,1,1,0
536874463,536872680,31044075,49.078753500000005,2.2543773,-1.0816008,-2.3612478,1.8166465,-0.0069100135,-0.00015225113,0.25713933,-0.014556521,-0.05901443,0.018175617,0.009072626,-0.036898524,0.010050106,0.041895274,-0.08496753,-3.9781039,1.085857,-0.5618728,-0.112117834,99.7061,0.10157907,0.36789942,0.38727197,0.13794929,0.10194055,inf,inf,inf,inf,1,1,1,1,3,1,3,2,5,1,1,1,0
536883948,536882650,31044075,49.078753500000005,2.2543773,-1.0819013,-2.3625615,1.8168782,-0.0069100135,-0.00015225113,0.25713933,-0.016261643,-0.045365468,0.014475578,0.00560863,-0.036898524,0.010050106,0.041895274,1.3178658,1.8458548,1.650179,-0.5619582,-0.112117834,99.7061,0.10137987,0.36865053,0.38791576,0.13844828,0.10212402,inf,inf,inf,inf,1,1,1,1,3,1,3,2,5,1,1,1,0
536894247,536892647,31044075,49.078753500000005,2.2543773,-1.0821601,-2.3638923,1.8171177,-0.0069100135,-0.00015225113,0.25713933,-0.024866005,-0.05442518,0.0019427051,-0.0066949874,-0.036898524,0.010050106,0.041895274,-3.0083096,2.206282,-2.9984632,-0.56180465,-0.112117834,99.7061,0.10119772,0.36940643,0.3885617,0.13881963,0.102306955,inf,inf,inf,inf,1,1,1,1,3,1,3,2,5,1,1,1,0
536904249,536902654,31044075,49.078753500000005,2.2543773,-1.0824248,-2.3651402,1.8172426,-0.0069100135,-0.00015225113,0.25713933,-0.0019484641,-0.057163175,-0.0053774375,-0.013792613,-0.036898524,0.010050106,0.041895274,3.475504,-1.7777534,-1.9670703,-0.5605106,-0.112117834,99.7061,0.10119283,0.37016678,0.38920975,0.13928887,0.10248969,inf,inf,inf,inf,1,1,1,1,3,1,3,2,5,1,1,1,0
536914206,536912660,31044075,49.078753500000005,2.2543773,-1.0826671,-2.3663263,1.8170894,-0.0069100135,-0.00015225113,0.25713933,-0.018733537,-0.050617997,-0.022340128,-0.030539231,-0.036898524,0.010050106,0.041895274,-0.061748967,-1.4267414,3.050119,-0.5599739,-0.112117834,99.7061,0.10137117,0.37093192,0.38985988,0.13978326,0.10267307,inf,inf,inf,inf,1,1,1,1,3,1,3,2,5,1,1,1,0
536924414,536922668,31044075,49.078753500000005,2.2543773,-1.0828563,-2.3674655,1.8171982,-0.0069100135,-0.00015225113,0.25713933,-0.0174353,-0.028437747,-0.028240357,-0.036049757,-0.036898524,0.010050106,0.041895274,-3.3392897,4.917283,-3.9911127,-0.55897635,-0.112117834,99.7061,0.10576534,0.37170187,0.3881039,0.14014459,0.10260071,inf,inf,inf,inf,1,1,1,1,3,1,3,2,5,1,1,1,0
536934223,536932675,31044075,49.078753500000005,2.2543773,-1.083047,-2.3685162,1.8172746,-0.0069100135,-0.00015225113,0.25713933,-0.008303321,-0.037970338,-0.022047982,-0.029481713,-0.036898524,0.010050106,0.041895274,-0.16446692,1.7540078,-1.7293137,-0.55794626,-0.112117834,99.7061,0.10584831,0.37247628,0.3887543,0.14062881,0.10278309,inf,inf,inf,inf,1,1,1,1,3,1,3,2,5,1,1,1,0
536944355,536942682,31044075,49.078753500000005,2.2543773,-1.0832288,-2.3695116,1.8173712,-0.0069100135,-0.00015225113,0.25713933,-0.0034143974,-0.04311857,-0.0066026277,-0.013674348,-0.036898524,0.010050106,0.041895274,1.9513706,-1.9374909,2.227111,-0.5569448,-0.112117834,99.7061,0.10585117,0.37325555,0.3894068,0.14109056,0.10296744,inf,inf,inf,inf,1,1,1,1,3,1,3,2,5,1,1,1,0
536954230,536952689,31044075,49.078753500000005,2.2543773,-1.0833796,-2.3704793,1.817497,-0.0069100135,-0.00015225113,0.25713933,-0.0056643365,-0.038963556,0.001117166,-0.005605518,-0.036898524,0.010050106,0.041895274,0.64440465,-1.5497738,4.518655,-0.5560849,-0.112117834,99.7061,0.10586429,0.37403962,0.39006147,0.14151545,0.10315096,inf,inf,inf,inf,1,1,1,1,3,1,3,2,5,1,1,1,0
536964011,536962697,31044075,49.078753500000005,2.2543773,-1.0834737,-2.371342,1.8177732,-0.0069100135,-0.00015225113,0.25713933,-0.011669825,-0.022667333,0.0014174918,-0.0049688574,-0.036898524,0.010050106,0.041895274,-3.4953532,0.4647793,-0.90520626,-0.5552896,-0.112117834,99.7061,0.10574615,0.37482834,0.39071825,0.14198664,0.10333369,inf,inf,inf,inf,1,1,1,1,3,1,3,2,5,1,1,1,0
536974506,536972703,31044075,49.078753500000005,2.2543773,-1.0835923,-2.3722231,1.8181221,-0.0069100135,-0.00015225113,0.25713933,0.002242165,-0.023059893,0.014962267,0.008900009,-0.036898524,0.010050106,0.041895274,1.1478549,3.6709778,-0.17955446,-0.554433,-0.112117834,99.7061,0.105494976,0.3756219,0.39137718,0.14247166,0.10351807,inf,inf,inf,inf,1,1,1,1,3,1,3,2,5,1,1,1,0
536984259,536982711,31044075,49.078753500000005,2.2543773,-1.0836856,-2.373029,1.8184636,-0.0069100135,-0.00015225113,0.25713933,0.008179313,-0.029649058,0.034212586,0.028366929,-0.036898524,0.010050106,0.041895274,3.3962796,-0.6715128,3.127712,-0.5531044,-0.112117834,99.7061,0.10515356,0.37642044,0.3896018,0.14288433,0.103439376,inf,inf,inf,inf,1,1,1,1,3,1,3,2,5,1,1,1,0
536994491,536992720,31044075,49.078753500000005,2.2543773,-1.0837673,-2.373766,1.818907,-0.0069100135,-0.00015225113,0.25713933,-0.006972318,-0.022759164,0.039146535,0.033510294,-0.036898524,0.010050106,0.041895274,-0.83947206,-1.2010128,2.331386,-0.55235505,-0.112117834,99.7061,0.1047101,0.3772236,0.39026088,0.1433573,0.10362236,inf,inf,inf,inf,1,1,1,1,3,1,3,2,5,1,1,1,0
537004050,537002726,31044075,49.078753500000005,2.2543773,-1.0837939,-2.3744285,1.8193941,-0.0069100135,-0.00015225113,0.25713933,0.0022484036,-0.014091277,0.03319599,0.02776208,-0.036898524,0.010050106,0.041895274,-1.7693264,0.02514685,-0.9721952,-0.55157787,-0.112117834,99.7061,0.10422301,0.37803167,0.39092216,0.1438652,0.1038067,inf,inf,inf,inf,1,1,1,1,3,1,3,2,5,1,1,1,0
537014129,537012733,31044075,49.078753500000005,2.2543773,-1.0838355,-2.3750863,1.8198935,-0.0069100135,-0.00015225113,0.25713933,0.0077762986,-0.0056050303,0.039177395,0.033938978,-0.036898524,0.010050106,0.041895274,1.5616957,3.9168653,-0.5007727,-0.55056,-0.112117834,99.7061,0.103723645,0.37884474,0.39158553,0.14435562,0.1039901,inf,inf,inf,inf,1,1,1,1,3,1,3,2,5,1,1,1,0
537024287,537022740,31044075,49.078753500000005,2.2543773,-1.083859,-2.3756723,1.8203781,-0.0069100135,-0.00015225113,0.25713933,0.0036046924,-0.017485855,0.03679332,0.031743996,-0.036898524,0.010050106,0.041895274,0.31127223,-1.0139772,-0.008974589,-0.5497169,-0.112117834,99.7061,0.10323906,0.37966278,0.3922511,0.14488457,0.104173966,inf,inf,inf,inf,1,1,1,1,3,1,3,2,5,1,1,1,0
537034543,537032747,31044075,49.078753500000005,2.2543773,-1.0839075,-2.3762474,1.8207424,-0.0069100135,-0.00015225113,0.25713933,-0.00564707,-0.017068792,0.033509377,0.028568106,-0.036898524,0.010050106,0.041895274,-1.9279116,-1.7135885,0.31668594,-0.5490681,-0.112117834,99.7061,0.102874756,0.38048595,0.39046603,0.14537501,0.104089506,inf,inf,inf,inf,1,1,1,1,3,1,3,2,5,1,1,1,0
537044159,537042755,31044075,49.078753500000005,2.2543773,-1.0839441,-2.3768399,1.821028,-0.0069100135,-0.00015225113,0.25713933,-0.0030911288,-0.018863175,0.011151112,0.0063151265,-0.036898524,0.010050106,0.041895274,-2.5077145,-0.7259529,-3.7318606,-0.5485627,-0.112117834,99.7061,0.10258913,0.38131413,0.39113173,0.14581957,0.10427378,inf,inf,inf,inf,1,1,1,1,3,1,3,2,5,1,1,1,0
537055036,537052762,31044075,49.078753500000005,2.2543773,-1.0841502,-2.3780375,1.821198,-0.0069100135,-0.00015225113,0.25713933,-0.0026236344,-0.014635826,0.027328156,0.022553304,-0.036898524,0.010050106,0.041895274,0.80504346,0.5224792,1.8843668,-0.54815674,-0.112117834,99.7061,0.10241914,0.36573872,0.38766676,0.13717651,0.10175248,inf,inf,inf,inf,1,1,1,1,3,1,3,2,5,1,1,1,0
537064459,537062777,31044075,49.078753500000005,2.2543773,-1.0843697,-2.379269,1.8213145,-0.0069100135,-0.00015225113,0.25713933,0.0031797276,-0.022815611,0.0073430496,0.0026284857,-0.036898524,0.010050106,0.041895274,3.3858902,1.1970258,-0.20645991,-0.54778814,-0.112117834,99.7061,0.10230267,0.3664813,0.38830936,0.13760515,0.101934835,inf,inf,inf,inf,1,1,1,1,3,1,3,2,5,1,1,1,0
537074426,537072776,31044075,49.078753500000005,2.2543773,-1.0845971,-2.38041,1.8213581,-0.0069100135,-0.00015225113,0.25713933,-0.023062209,-0.025772061,-0.00018074887,-0.004835858,-0.036898524,0.010050106,0.041895274,-3.4759586,-2.761837,-1.6075795,-0.5478556,-0.112117834,99.7061,0.10225904,0.36722848,0.388954,0.13806275,0.10211681,inf,inf,inf,inf,1,1,1,1,3,1,3,2,5,1,1,1,0
537084413,537082783,31044075,49.078753500000005,2.2543773,-1.0847795,-2.3815453,1.8213776,-0.0069100135,-0.00015225113,0.25713933,-0.009786771,-0.020178357,0.0024033021,-0.0021930567,-0.036898524,0.010050106,0.041895274,-3.7040513,-0.11291013,-0.6832696,-0.548026,-0.112117834,99.7061,0.10223949,0.3679803,0.38960078,0.13847321,0.102299206,inf,inf,inf,inf,1,1,1,1,3,1,3,2,5,1,1,1,0
537094637,537092791,31044075,49.078753500000005,2.2543773,-1.0850452,-2.382659,1.8214418,-0.0069100135,-0.00015225113,0.25713933,0.003985694,-0.018375762,0.0067018624,0.0022074766,-0.036898524,0.010050106,0.041895274,5.400089,1.4176568,0.8589342,-0.54787993,-0.112117834,99.7061,0.102175355,0.36873662,0.38784623,0.1388641,0.10222857,inf,inf,inf,inf,1,1,1,1,3,1,3,2,5,1,1,1,0
537104320,537102986,31044075,49.078753500000005,2.2543773,-1.0852596,-2.3837888,1.821483,-0.0069100135,-0.00015225113,0.25713933,-0.018562032,-0.027750013,0.00094177626,-0.0034532445,-0.036898524,0.010050106,0.041895274,-1.827345,0.42585748,0.5102492,-0.54819554,-0.112117834,99.7061,0.10213411,0.36949742,0.3884932,0.1393088,0.10241147,inf,inf,inf,inf,1,1,1,1,3,1,3,2,5,1,1,1,0
537114313,537112947,31044075,49.078753500000005,2.2543773,-1.085518,-2.3848515,1.8215874,-0.0069100135,-0.00015225113,0.25713933,-0.015374143,-0.035880584,0.009631171,0.0053328085,-0.036898524,0.010050106,0.041895274,-1.2556967,-4.263826,-0.1089005,-0.54837376,-0.112117834,99.7061,0.10202968,0.37026286,0.38914233,0.13979457,0.102593906,inf,inf,inf,inf,1,1,1,1,3,1,3,2,5,1,1,1,0
537124263,537122914,31044075,49.078753500000005,2.2543773,-1.0857413,-2.385928,1.8217256,-0.0069100135,-0.00015225113,0.25713933,-0.012750559,-0.016516194,0.016599054,0.012394722,-0.036898524,0.010050106,0.041895274,-1.3334739,2.6082406,1.3909878,-0.5485635,-0.112117834,99.7061,0.10189152,0.37103307,0.38979357,0.14023891,0.10277651,inf,inf,inf,inf,1,1,1,1,3,1,3,2,5,1,1,1,0
537133988,537132866,31044075,49.078753500000005,2.2543773,-1.0860187,-2.3870194,1.8219273,-0.0069100135,-0.00015225113,0.25713933,-0.00045040363,-0.03195112,0.01682858,0.012715801,-0.036898524,0.010050106,0.041895274,5.0275197,1.6723282,-0.45860022,-0.548559,-0.112117834,99.7061,0.101689816,0.37180793,0.39044693,0.14071316,0.102960296,inf,inf,inf,inf,1,1,1,1,3,1,3,2,5,1,1,1,0
537144733,537142827,31044075,49.078753500000005,2.2543773,-1.0862753,-2.3880372,1.8222586,-0.0069100135,-0.00015225113,0.25713933,-0.030917354,-0.034934837,0.026673406,0.022745695,-0.036898524,0.010050106,0.041895274,-3.632051,-2.7460186,1.0936028,-0.5487873,-0.112117834,99.7061,0.10135853,0.37258762,0.38868326,0.14119335,0.10288551,inf,inf,inf,inf,1,1,1,1,3,1,3,2,5,1,1,1,0
537153937,537152835,31044075,49.078753500000005,2.2543773,-1.0865203,-2.3890362,1.8225905,-0.0069100135,-0.00015225113,0.25713933,-0.013308543,-0.027548166,0.016160717,0.012411503,-0.036898524,0.010050106,0.041895274,-1.8231177,-0.59494174,-1.311974,-0.54901206,-0.112117834,99.7061,0.101026654,0.37337208,0.3893368,0.14174475,0.10306897,inf,inf,inf,inf,1,1,1,1,3,1,3,2,5,1,1,1,0
537164519,537162844,31044075,49.078753500000005,2.2543773,-1.0868117,-2.390034,1.8229231,-0.0069100135,-0.00015225113,0.25713933,-0.00901395,-0.018529542,0.025007818,0.021430839,-0.036898524,0.010050106,0.041895274,3.2628934,3.8147888,0.10255356,-0.5490767,-0.112117834,99.7061,0.100841165,0.3741616,0.3899925,0.14215718,0.10325221,inf,inf,inf,inf,1,1,1,1,3,1,3,2,5,1,1,1,0
537174051,537172851,31044075,49.078753500000005,2.2543773,-1.0870428,-2.3910327,1.8231978,-0.0069100135,-0.00015225113,0.25713933,-0.008870028,-0.03974527,0.020194156,0.01678332,-0.036898524,0.010050106,0.041895274,1.5846198,-0.5436811,1.7493073,-0.54888976,-0.112117834,99.7061,0.10073197,0.37495574,0.39065033,0.14270306,0.10343603,inf,inf,inf,inf,1,1,1,1,3,1,3,2,5,1,1,1,0
537184196,537182857,31044075,49.078753500000005,2.2543773,-1.0872624,-2.3919861,1.8234675,-0.0069100135,-0.00015225113,0.25713933,-0.021349123,-0.042264275,0.0075915977,0.004340995,-0.036898524,0.010050106,0.041895274,-2.4996696,-4.392743,-2.5020614,-0.549173,-0.112117834,99.7061,0.10049081,0.37575495,0.3913103,0.14320502,0.10362038,inf,inf,inf,inf,1,1,1,1,3,1,3,2,5,1,1,1,0
537194403,537192864,31044075,49.078753500000005,2.2543773,-1.0874394,-2.3929858,1.8235813,-0.0069100135,-0.00015225113,0.25713933,-0.007912961,-0.021491919,0.014627534,0.011445168,-0.036898524,0.010050106,0.041895274,-1.4901154,4.3210897,0.9774435,-0.5490643,-0.112117834,99.7061,0.10037696,0.3765591,0.3895372,0.14367175,0.10354058,inf,inf,inf,inf,1,1,1,1,3,1,3,2,5,1,1,1,0
537204180,537202871,31044075,49.078753500000005,2.2543773,-1.0876857,-2.3939528,1.823687,-0.0069100135,-0.00015225113,0.25713933,0.0020294422,-0.04237814,0.0051177754,0.0020018185,-0.036898524,0.010050106,0.041895274,5.9032164,-0.23290469,-0.86124635,-0.54858977,-0.112117834,99.7061,0.100271344,0.37736815,0.39019734,0.1441336,0.10372404,inf,inf,inf,inf,1,1,1,1,3,1,3,2,5,1,1,1,0
537214163,537212878,31044075,49.078753500000005,2.2543773,-1.0878657,-2.3948772,1.8238136,-0.0069100135,-0.00015225113,0.25713933,-0.025985144,-0.04144545,0.01927948,0.016228449,-0.036898524,0.010050106,0.041895274,-4.0112996,-2.8373647,1.6169286,-0.5486528,-0.112117834,99.7061,0.100144744,0.37818202,0.39085963,0.14464037,0.10390886,inf,inf,inf,inf,1,1,1,1,3,1,3,2,5,1,1,1,0
537224184,537222886,31044075,49.078753500000005,2.2543773,-1.088058,-2.3958418,1.8239236,-0.0069100135,-0.00015225113,0.25713933,-0.0061403145,-0.03982724,0.0015615028,-0.001426303,-0.036898524,0.010050106,0.041895274,-0.32174265,0.036617164,-1.6908104,-0.5486177,-0.112117834,99.7061,0.100034714,0.3790009,0.3915241,0.14508629,0.10409316,inf,inf,inf,inf,1,1,1,1,3,1,3,2,5,1,1,1,0
537234268,537232892,31044075,49.078753500000005,2.2543773,-1.0882907,-2.396817,1.8240575,-0.0069100135,-0.00015225113,0.25713933,-0.012910106,-0.038203582,0.014569786,0.011643717,-0.036898524,0.010050106,0.041895274,1.3110489,1.9571952,-0.5103485,-0.54836416,-0.112117834,99.7061,0.1,0.3798246,0.39219075,0.14554217,0.10427625,inf,inf,inf,inf,1,1,1,1,3,1,3,2,5,1,1,1,0
537244220,537242899,31044075,49.078753500000005,2.2543773,-1.0885096,-2.3978171,1.8242141,-0.0069100135,-0.00015225113,0.25713933,-0.01195511,-0.05474008,0.021833435,0.01896751,-0.036898524,0.010050106,0.041895274,0.6321991,-0.93662935,2.0124815,-0.5478709,-0.112117834,99.7061,0.1,0.3806532,0.39285952,0.14602143,0.10446082,inf,inf,inf,inf,1,1,1,1,3,1,3,2,5,1,1,1,0
537255170,537252907,31044075,49.078753500000005,2.2543773,-1.0884014,-2.3988326,1.8241227,-0.0069100135,-0.00015225113,0.25713933,-0.022137066,-0.051340815,0.011500209,0.008431228,-0.036898524,0.010050106,0.041895274,-1.777174,-2.937982,-0.6576252,-0.54819024,-0.112117834,99.7061,0.1,0.3651159,0.3869548,0.13737923,0.10167655,inf,inf,inf,inf,1,1,1,1,3,1,3,2,5,1,1,1,0
537264506,537262914,31044075,49.078753500000005,2.2543773,-1.0882822,-2.3999076,1.8240448,-0.0069100135,-0.00015225113,0.25713933,-0.011127559,-0.03698106,0.015874244,0.012612252,-0.036898524,0.010050106,0.041895274,-0.35162106,4.923215,-0.6151037,-0.54799515,-0.112117834,99.7061,0.1,0.36585888,0.38759634,0.13788673,0.10185845,inf,inf,inf,inf,1,1,1,1,3,1,3,2,5,1,1,1,0
537274249,537272921,31044075,49.078753500000005,2.2543773,-1.0882076,-2.4009023,1.8239702,-0.0069100135,-0.00015225113,0.25713933,-0.012754618,-0.059047405,0.015539205,0.012093983,-0.036898524,0.010050106,0.041895274,1.908406,-2.4915857,-0.13067815,-0.54782134,-0.112117834,99.7061,0.1,0.36660656,0.38823995,0.13832751,0.10204063,inf,inf,inf,inf,1,1,1,1,3,1,3,2,5,1,1,1,0
537284241,537282928,31044075,49.078753500000005,2.2543773,-1.0881093,-2.401859,1.8238726,-0.0069100135,-0.00015225113,0.25713933,-0.018685365,-0.043185305,0.016473204,0.012854107,-0.036898524,0.010050106,0.041895274,-1.177674,-0.563092,1.4161146,-0.5479082,-0.112117834,99.7061,0.100085735,0.36735886,0.38888568,0.13881618,0.1022244,inf,inf,inf,inf,1,1,1,1,3,1,3,2,5,1,1,1,0
537294512,537292935,31044075,49.078753500000005,2.2543773,-1.0880508,-2.4028528,1.8237914,-0.0069100135,-0.00015225113,0.25713933,-0.016217412,-0.0484923,0.0075549944,0.0037711172,-0.036898524,0.010050106,0.041895274,0.2731785,1.5390159,-1.584007,-0.5479657,-0.112117834,99.7061,0.10016692,0.36811587,0.3895335,0.13933578,0.10240768,inf,inf,inf,inf,1,1,1,1,3,1,3,2,5,1,1,1,0
537304230,537302942,31044075,49.078753500000005,2.2543773,-1.088024,-2.4037685,1.8236324,-0.0069100135,-0.00015225113,0.25713933,-0.027119262,-0.048850227,0.017293166,0.013262006,-0.036898524,0.010050106,0.041895274,-1.8396326,-1.3536073,0.24130245,-0.5480807,-0.112117834,99.7061,0.10032594,0.36887774,0.38778123,0.1397877,0.10233525,inf,inf,inf,inf,1,1,1,1,3,1,3,2,5,1,1,1,0
537314604,537312951,31044075,49.078753500000005,2.2543773,-1.088051,-2.4047425,1.8234166,-0.0069100135,-0.00015225113,0.25713933,-0.01337469,-0.052366223,0.0075411964,0.0032752359,-0.036898524,0.010050106,0.041895274,3.3150525,0.71556,0.9537979,-0.5477873,-0.112117834,99.7061,0.10054171,0.36964425,0.38842928,0.140298,0.10251908,inf,inf,inf,inf,1,1,1,1,3,1,3,2,5,1,1,1,0
537324100,537322957,31044075,49.078753500000005,2.2543773,-1.0881218,-2.4056447,1.8232663,-0.0069100135,-0.00015225113,0.25713933,-0.040208224,-0.05376307,0.01427438,0.009785483,-0.036898524,0.010050106,0.041895274,-1.8772625,-2.3056695,-0.23959744,-0.54839635,-0.112117834,99.7061,0.100692034,0.37041563,0.38907948,0.1407262,0.10270275,inf,inf,inf,inf,1,1,1,1,3,1,3,2,5,1,1,1,0
537334249,537332965,31044075,49.078753500000005,2.2543773,-1.0881629,-2.406585,1.8230845,-0.0069100135,-0.00015225113,0.25713933,-0.027082728,-0.0419276,0.0075293463,0.0028289966,-0.036898524,0.010050106,0.041895274,-2.1190243,3.311858,0.038817413,-0.54828787,-0.112117834,99.7061,0.10087383,0.37119162,0.38973176,0.14127049,0.10288545,inf,inf,inf,inf,1,1,1,1,3,1,3,2,5,1,1,1,0
537344194,537342972,31044075,49.078753500000005,2.2543773,-1.0882959,-2.407434,1.8229328,-0.0069100135,-0.00015225113,0.25713933,-0.027005473,-0.054849844,0.01133283,0.0064323163,-0.036898524,0.010050106,0.041895274,2.7845995,-2.2572715,-0.41492748,-0.54825556,-0.112117834,99.7061,0.10102546,0.3719726,0.3903862,0.14170523,0.10306874,inf,inf,inf,inf,1,1,1,1,3,1,3,2,5,1,1,1,0
537354388,537352979,31044075,49.078753500000005,2.2543773,-1.0884072,-2.4082775,1.8227109,-0.0069100135,-0.00015225113,0.25713933,-0.035037298,-0.03916619,0.01282868,0.0076996526,-0.036898524,0.010050106,0.041895274,-0.6730483,1.6233686,2.072841,-0.54848444,-0.112117834,99.7061,0.10124743,0.37275827,0.38862473,0.1421611,0.102994084,inf,inf,inf,inf,1,1,1,1,3,1,3,2,5,1,1,1,0
537364449,537363168,31044075,49.078753500000005,2.2543773,-1.0885799,-2.4090657,1.8225037,-0.0069100135,-0.00015225113,0.25713933,-0.040222973,-0.044586323,-0.0025635338,-0.007908897,-0.036898524,0.010050106,0.041895274,-1.0423684,-0.42344108,-2.5155897,-0.5487603,-0.112117834,99.7061,0.101454616,0.3735487,0.38927937,0.14268337,0.1031776,inf,inf,inf,inf,1,1,1,1,3,1,3,2,5,1,1,1,0
537374448,537373128,31044075,49.078753500000005,2.2543773,-1.088744,-2.409793,1.8223153,-0.0069100135,-0.00015225113,0.25713933,-0.037461523,-0.035555627,0.011845485,0.00629535,-0.036898524,0.010050106,0.041895274,-1.0044239,0.4217125,-0.2557634,-0.5486152,-0.112117834,99.7061,0.101642966,0.37434408,0.38993618,0.14315376,0.103360154,inf,inf,inf,inf,1,1,1,1,3,1,3,2,5,1,1,1,0
537384366,537383092,31044075,49.078753500000005,2.2543773,-1.0889319,-2.410486,1.8220686,-0.0069100135,-0.00015225113,0.25713933,-0.029577758,-0.035645533,0.0046365964,-0.0011071314,-0.036898524,0.010050106,0.041895274,2.500195,0.51774496,1.7356049,-0.5488235,-0.112117834,99.7061,0.10188973,0.3751443,0.39059508,0.14364107,0.10354483,inf,inf,inf,inf,1,1,1,1,3,1,3,2,5,1,1,1,0
537394257,537393046,31044075,49.078753500000005,2.2543773,-1.0891148,-2.411126,1.8218457,-0.0069100135,-0.00015225113,0.25713933,-0.04295468,-0.031942606,-0.0013623232,-0.007288889,-0.036898524,0.010050106,0.041895274,-1.1342909,-0.01727128,-1.3581948,-0.5490232,-0.112117834,99.7061,0.10211265,0.37594944,0.39125615,0.14412701,0.10372779,inf,inf,inf,inf,1,1,1,1,3,1,3,2,5,1,1,1,0
537404328,537403017,31044075,49.078753500000005,2.2543773,-1.0892742,-2.4117136,1.8216437,-0.0069100135,-0.00015225113,0.25713933,-0.042449094,-0.028864205,0.0078348555,0.0017360011,-0.036898524,0.010050106,0.041895274,-3.456277,-0.21937798,0.27418327,-0.54885757,-0.112117834,99.7061,0.10231459,0.3767595,0.3919194,0.14464945,0.10391168,inf,inf,inf,inf,1,1,1,1,3,1,3,2,5,1,1,1,0
537414613,537413022,31044075,49.078753500000005,2.2543773,-1.0894692,-2.4122477,1.8212943,-0.0069100135,-0.00015225113,0.25713933,-0.030579317,-0.024113761,0.0077137607,0.0012651498,-0.036898524,0.010050106,0.041895274,1.3327867,-0.18834874,-0.039093003,-0.54891074,-0.112117834,99.7061,0.102663994,0.37757462,0.39013818,0.14510503,0.10383003,inf,inf,inf,inf,1,1,1,1,3,1,3,2,5,1,1,1,0
537424323,537423029,31044075,49.078753500000005,2.2543773,-1.0896841,-2.4127986,1.820938,-0.0069100135,-0.00015225113,0.25713933,-0.03333995,-0.021918014,0.00542179,-0.0013585605,-0.036898524,0.010050106,0.041895274,2.3933973,2.186307,0.18732259,-0.54872996,-0.112117834,99.7061,0.10302031,0.37839457,0.39080155,0.14563328,0.10401374,inf,inf,inf,inf,1,1,1,1,3,1,3,2,5,1,1,1,0
537434608,537433037,31044075,49.078753500000005,2.2543773,-1.0898769,-2.4132988,1.820615,-0.0069100135,-0.00015225113,0.25713933,-0.04942353,-0.03531926,0.005063351,-0.002031528,-0.036898524,0.010050106,0.041895274,-3.7423947,-3.2332652,-0.9716683,-0.5488765,-0.112117834,99.7061,0.10334325,0.37921968,0.3914671,0.1461031,0.10419834,inf,inf,inf,inf,1,1,1,1,3,1,3,2,5,1,1,1,0
537445194,537443044,31044075,49.078753500000005,2.2543773,-1.0897397,-2.4140654,1.8200502,-0.0069100135,-0.00015225113,0.25713933,-0.034713984,-0.017132945,0.0053145224,-0.002285469,-0.036898524,0.010050106,0.041895274,-0.16811167,0.9970422,1.3202176,-0.54889107,-0.112117834,99.7061,0.10390806,0.3637798,0.3880003,0.13751945,0.10168168,inf,inf,inf,inf,1,1,1,1,3,1,3,2,5,1,1,1,0
537454371,537453051,31044075,49.078753500000005,2.2543773,-1.0896505,-2.4148185,1.8195376,-0.0069100135,-0.00015225113,0.25713933,-0.028039882,-0.017807612,0.0022107598,-0.0058693667,-0.036898524,0.010050106,0.041895274,4.765288,2.9041333,-0.9380131,-0.54877824,-0.112117834,99.7061,0.10442066,0.36451954,0.38864276,0.13798541,0.101864636,inf,inf,inf,inf,1,1,1,1,3,1,3,2,5,1,1,1,0
537464746,537463058,31044075,49.078753500000005,2.2543773,-1.089534,-2.4154923,1.8190175,-0.0069100135,-0.00015225113,0.25713933,-0.052489467,-0.028151333,0.011591361,0.0030215012,-0.036898524,0.010050106,0.041895274,-3.5151784,-2.5770407,1.3459874,-0.5490197,-0.112117834,99.7061,0.10494077,0.36526388,0.3869015,0.13846245,0.10179642,inf,inf,inf,inf,1,1,1,1,3,1,3,2,5,1,1,1,0
537474220,537473065,31044075,49.078753500000005,2.2543773,-1.0894116,-2.416142,1.8185065,-0.0069100135,-0.00015225113,0.25713933,-0.03552052,-0.017856717,0.0004059738,-0.008628919,-0.036898524,0.010050106,0.041895274,-1.657671,-0.671144,-0.71639514,-0.5490576,-0.112117834,99.7061,0.10545182,0.36601293,0.38754418,0.13900591,0.10197938,inf,inf,inf,inf,1,1,1,1,3,1,3,2,5,1,1,1,0
537484785,537483073,31044075,49.078753500000005,2.2543773,-1.0893681,-2.4168105,1.8180425,-0.0069100135,-0.00015225113,0.25713933,-0.03407899,-0.013155662,0.009481088,5.20912e-06,-0.036898524,0.010050106,0.041895274,3.0618806,3.2823873,-0.32159767,-0.54912853,-0.112117834,99.7061,0.105915785,0.36676684,0.388189,0.13943762,0.10216148,inf,inf,inf,inf,1,1,1,1,3,1,3,2,5,1,1,1,0
537494239,537493080,31044075,49.078753500000005,2.2543773,-1.0893353,-2.4175153,1.8175659,-0.0069100135,-0.00015225113,0.25713933,-0.04231303,-0.03674358,0.007789743,-0.0021040628,-0.036898524,0.010050106,0.041895274,0.7408637,-1.0951084,1.3921409,-0.5490578,-0.112117834,99.7061,0.10639238,0.36752537,0.3888359,0.13994686,0.102344,inf,inf,inf,inf,1,1,1,1,3,1,3,2,5,1,1,1,0
537504413,537503087,31044075,49.078753500000005,2.2543773,-1.089339,-2.41816,1.8170943,-0.0069100135,-0.00015225113,0.25713933,-0.06033829,-0.034239292,-0.00017920395,-0.01046876,-0.036898524,0.010050106,0.041895274,-4.5076547,-4.4012055,-0.707503,-0.54973245,-0.112117834,99.7061,0.106863976,0.36828873,0.38948494,0.14045408,0.10252696,inf,inf,inf,inf,1,1,1,1,3,1,3,2,5,1,1,1,0
537514657,537513095,31044075,49.078753500000005,2.2543773,-1.089366,-2.4188864,1.8166481,-0.0069100135,-0.00015225113,0.25713933,-0.036011197,-0.017760247,-0.004135451,-0.014769596,-0.036898524,0.010050106,0.041895274,1.312337,4.7596188,-1.888228,-0.5498397,-0.112117834,99.7061,0.107310176,0.36905694,0.3877347,0.14090827,0.102455035,inf,inf,inf,inf,1,1,1,1,3,1,3,2,5,1,1,1,0
537524417,537523102,31044075,49.078753500000005,2.2543773,-1.0894333,-2.419577,1.8161749,-0.0069100135,-0.00015225113,0.25713933,-0.04162371,-0.038892686,0.0019999638,-0.008959426,-0.036898524,0.010050106,0.041895274,3.2383122,-0.718364,1.232922,-0.54976827,-0.112117834,99.7061,0.10778344,0.36982986,0.38838395,0.14139785,0.10263754,inf,inf,inf,inf,1,1,1,1,3,1,3,2,5,1,1,1,0
537534435,537533109,31044075,49.078753500000005,2.2543773,-1.0894616,-2.4201846,1.8157294,-0.0069100135,-0.00015225113,0.25713933,-0.052970726,-0.031065246,0.0030595642,-0.008206236,-0.036898524,0.010050106,0.041895274,-2.6030586,-3.0511892,1.6523426,-0.5502582,-0.112117834,99.7061,0.10822892,0.3706076,0.3890353,0.14189704,0.1028206,inf,inf,inf,inf,1,1,1,1,3,1,3,2,5,1,1,1,0
537544400,537543116,31044075,49.078753500000005,2.2543773,-1.0895087,-2.4208522,1.8153512,-0.0069100135,-0.00015225113,0.25713933,-0.04200926,-0.023740586,-0.0075413403,-0.019095698,-0.036898524,0.010050106,0.041895274,-0.2054178,2.865679,-3.5812786,-0.5504264,-0.112117834,99.7061,0.108607054,0.37139022,0.3896888,0.14239019,0.10300483,inf,inf,inf,inf,1,1,1,1,3,1,3,2,5,1,1,1,0
537554412,537553123,31044075,49.078753500000005,2.2543773,-1.0895818,-2.4214745,1.8149238,-0.0069100135,-0.00015225113,0.25713933,-0.047166247,-0.032914095,0.004747731,-0.007077775,-0.036898524,0.010050106,0.041895274,-0.07830402,-0.38254353,1.607629,-0.550398,-0.112117834,99.7061,0.10903454,0.37217775,0.39034444,0.14288306,0.1031869,inf,inf,inf,inf,1,1,1,1,3,1,3,2,5,1,1,1,0
537564425,537563131,31044075,49.078753500000005,2.2543773,-1.0896614,-2.4220936,1.8145342,-0.0069100135,-0.00015225113,0.25713933,-0.039957535,-0.033307303,0.003913239,-0.008166798,-0.036898524,0.010050106,0.041895274,1.5885345,-0.85091627,1.5727499,-0.55036986,-0.112117834,99.7061,0.109424114,0.37297016,0.3910022,0.14338845,0.103370145,inf,inf,inf,inf,1,1,1,1,3,1,3,2,5,1,1,1,0
537574700,537573140,31044075,49.078753500000005,2.2543773,-1.0897845,-2.4227061,1.8140278,-0.0069100135,-0.00015225113,0.25713933,-0.05657379,-0.034608245,0.0014191989,-0.0110600535,-0.036898524,0.010050106,0.041895274,-1.3567915,-1.0344087,-0.3876522,-0.55090743,-0.112117834,99.7061,0.109930515,0.37376752,0.3892326,0.14385049,0.10329328,inf,inf,inf,inf,1,1,1,1,3,1,3,2,5,1,1,1,0
537584520,537583147,31044075,49.078753500000005,2.2543773,-1.0898982,-2.4233463,1.8135365,-0.0069100135,-0.00015225113,0.25713933,-0.04775539,-0.029782686,0.0012021189,-0.011653826,-0.036898524,0.010050106,0.041895274,-1.2649167,1.8404708,-0.5811626,-0.5507568,-0.112117834,99.7061,0.11042178,0.3745697,0.38989055,0.14438823,0.10347599,inf,inf,inf,inf,1,1,1,1,3,1,3,2,5,1,1,1,0
537594484,537593153,31044075,49.078753500000005,2.2543773,-1.0900934,-2.423993,1.8131161,-0.0069100135,-0.00015225113,0.25713933,-0.04571921,-0.05047465,0.01302721,-0.00018368967,-0.036898524,0.010050106,0.041895274,3.2389293,-2.9560707,0.75904626,-0.55074495,-0.112117834,99.7061,0.11084223,0.37537703,0.39055064,0.14485396,0.10365941,inf,inf,inf,inf,1,1,1,1,3,1,3,2,5,1,1,1,0
537604484,537603160,31044075,49.078753500000005,2.2543773,-1.0902292,-2.4246464,1.8126487,-0.0069100135,-0.00015225113,0.25713933,-0.051068004,-0.035938766,0.0035136421,-0.010031354,-0.036898524,0.010050106,0.041895274,-0.84149325,0.129818,1.6929626,-0.5509162,-0.112117834,99.7061,0.11130965,0.3761892,0.39121285,0.14535825,0.10384446,inf,inf,inf,inf,1,1,1,1,3,1,3,2,5,1,1,1,0
537614557,537613167,31044075,49.078753500000005,2.2543773,-1.0904326,-2.4253154,1.8122163,-0.0069100135,-0.00015225113,0.25713933,-0.059220884,-0.045041658,-0.0053814175,-0.019240405,-0.036898524,0.010050106,0.041895274,-1.5827098,-0.24009912,-2.6771212,-0.55096036,-0.112117834,99.7061,0.11174202,0.37700644,0.39187723,0.14588964,0.10402869,inf,inf,inf,inf,1,1,1,1,3,1,3,2,5,1,1,1,0
537624751,537623353,31044075,49.078753500000005,2.2543773,-1.0905818,-2.425967,1.8115826,-0.0069100135,-0.00015225113,0.25713933,-0.04700979,-0.04004916,-0.001968984,-0.016292734,-0.036898524,0.010050106,0.041895274,-1.6662428,-0.06969604,-0.65726876,-0.5508134,-0.112117834,99.7061,0.112375736,0.3778288,0.39009798,0.14640647,0.103945,inf,inf,inf,inf,1,1,1,1,3,1,3,2,5,1,1,1,0
537635012,537633313,31044075,49.078753500000005,2.2543773,-1.0907999,-2.4266262,1.8109305,-0.0069100135,-0.00015225113,0.25713933,-0.045253526,-0.040045988,-0.0024394465,-0.017201789,-0.036898524,0.010050106,0.041895274,3.138443,1.6395456,1.1843657,-0.55055785,-0.112117834,99.7061,0.11302781,0.37865624,0.3907625,0.14688617,0.104130164,inf,inf,inf,inf,1,1,1,1,3,1,3,2,5,1,1,1,0
537644376,537643270,31044075,49.078753500000005,2.2543773,-1.0909503,-2.427264,1.8102723,-0.0069100135,-0.00015225113,0.25713933,-0.05143776,-0.047470342,-0.013445827,-0.028621726,-0.036898524,0.010050106,0.041895274,-1.6823182,-1.1783167,-1.0574586,-0.5507599,-0.112117834,99.7061,0.113685966,0.37948874,0.39142922,0.14738838,0.10431423,inf,inf,inf,inf,1,1,1,1,3,1,3,2,5,1,1,1,0
537655539,537653237,31044075,49.078753500000005,2.2543773,-1.0914369,-2.4281604,1.8096306,-0.0069100135,-0.00015225113,0.25713933,-0.055072196,-0.04635954,-0.005062257,-0.020660052,-0.036898524,0.010050106,0.041895274,-1.5260888,-0.8967762,-0.8804073,-0.5503618,-0.112117834,99.7061,0.11432767,0.3638468,0.3879498,0.13860638,0.101789266,inf,inf,inf,inf,1,1,1,1,3,1,3,2,5,1,1,1,0
537664352,537663203,31044075,49.078753500000005,2.2543773,-1.0918826,-2.4290369,1.8089626,-0.0069100135,-0.00015225113,0.25713933,-0.039014187,-0.041808724,-0.004614766,-0.020609776,-0.036898524,0.010050106,0.041895274,1.351329,0.5710043,1.9697177,-0.5503833,-0.112117834,99.7061,0.11499572,0.36459196,0.38859332,0.13905266,0.10197237,inf,inf,inf,inf,1,1,1,1,3,1,3,2,5,1,1,1,0
537674807,537673210,31044075,49.078753500000005,2.2543773,-1.0923667,-2.4299088,1.8081281,-0.0069100135,-0.00015225113,0.25713933,-0.044886094,-0.038516313,-0.011116152,-0.027701734,-0.036898524,0.010050106,0.041895274,2.7082648,2.4785385,-1.0368906,-0.5501569,-0.112117834,99.7061,0.11583018,0.36534172,0.38685402,0.13954607,0.1019043,inf,inf,inf,inf,1,1,1,1,3,1,3,2,5,1,1,1,0
537684515,537683224,31044075,49.078753500000005,2.2543773,-1.0927856,-2.4307778,1.807333,-0.0069100135,-0.00015225113,0.25713933,-0.055019766,-0.059062354,-0.0018333343,-0.018976942,-0.036898524,0.010050106,0.041895274,-3.490266,-2.7924848,0.56072944,-0.550202,-0.112117834,99.7061,0.11662531,0.3660963,0.3874978,0.1400478,0.10208759,inf,inf,inf,inf,1,1,1,1,3,1,3,2,5,1,1,1,0
537694530,537693224,31044075,49.078753500000005,2.2543773,-1.0932019,-2.4316208,1.8065599,-0.0069100135,-0.00015225113,0.25713933,-0.038675956,-0.052015375,-0.0015600695,-0.01923037,-0.036898524,0.010050106,0.041895274,0.24167329,-3.0004005,1.6713148,-0.55010945,-0.112117834,99.7061,0.11739838,0.36685565,0.3881437,0.1405417,0.10226998,inf,inf,inf,inf,1,1,1,1,3,1,3,2,5,1,1,1,0
537704529,537703232,31044075,49.078753500000005,2.2543773,-1.0936007,-2.4325,1.805866,-0.0069100135,-0.00015225113,0.25713933,-0.036075078,-0.032957878,0.0014568114,-0.01670997,-0.036898524,0.010050106,0.041895274,2.0894578,5.4848776,0.39840406,-0.54953647,-0.112117834,99.7061,0.1180923,0.36761984,0.38879168,0.14099321,0.10245382,inf,inf,inf,inf,1,1,1,1,3,1,3,2,5,1,1,1,0
537714530,537713239,31044075,49.078753500000005,2.2543773,-1.0939522,-2.4333966,1.8052886,-0.0069100135,-0.00015225113,0.25713933,-0.03698685,-0.062208544,0.0036144434,-0.015019801,-0.036898524,0.010050106,0.041895274,0.17550178,-0.083433144,-2.26555,-0.5489844,-0.112117834,99.7061,0.11866975,0.36838877,0.3894418,0.14152382,0.10263625,inf,inf,inf,inf,1,1,1,1,3,1,3,2,5,1,1,1,0
537724549,537723247,31044075,49.078753500000005,2.2543773,-1.0942645,-2.4342146,1.8046737,-0.0069100135,-0.00015225113,0.25713933,-0.03490249,-0.05875233,0.01985326,0.0007795817,-0.036898524,0.010050106,0.041895274,-0.8738506,-4.463101,5.1419845,-0.548751,-0.112117834,99.7061,0.11928463,0.36916268,0.39009404,0.14205253,0.10281997,inf,inf,inf,inf,1,1,1,1,3,1,3,2,5,1,1,1,0
537734798,537733255,31044075,49.078753500000005,2.2543773,-1.0945648,-2.4350638,1.8041698,-0.0069100135,-0.00015225113,0.25713933,-0.030469283,-0.03942447,-0.00450356,-0.023953108,-0.036898524,0.010050106,0.041895274,0.06491766,3.4960132,-2.695946,-0.54811865,-0.112117834,99.7061,0.11978853,0.36994153,0.38833576,0.14254442,0.10274528,inf,inf,inf,inf,1,1,1,1,3,1,3,2,5,1,1,1,0
537744588,537743261,31044075,49.078753500000005,2.2543773,-1.0948148,-2.435872,1.8037245,-0.0069100135,-0.00015225113,0.25713933,-0.025986908,-0.05241241,0.007822063,-0.011979058,-0.036898524,0.010050106,0.041895274,-0.032444093,0.5456003,-2.9269893,-0.5471493,-0.112117834,99.7061,0.120233774,0.3707253,0.38898823,0.1430439,0.10292845,inf,inf,inf,inf,1,1,1,1,3,1,3,2,5,1,1,1,0
537754660,537753268,31044075,49.078753500000005,2.2543773,-1.0950321,-2.4366705,1.8032126,-0.0069100135,-0.00015225113,0.25713933,-0.020680543,-0.052754212,0.007965668,-0.012163734,-0.036898524,0.010050106,0.041895274,0.6543603,-0.7157046,1.7749071,-0.5460882,-0.112117834,99.7061,0.12074566,0.37151402,0.38964278,0.14358231,0.10311224,inf,inf,inf,inf,1,1,1,1,3,1,3,2,5,1,1,1,0
537764591,537763275,31044075,49.078753500000005,2.2543773,-1.0952512,-2.437399,1.8027,-0.0069100135,-0.00015225113,0.25713933,-0.025910318,-0.051700942,0.0045492677,-0.015885822,-0.036898524,0.010050106,0.041895274,-0.3584688,-2.7304943,1.4756379,-0.54575276,-0.112117834,99.7061,0.12125826,0.3723078,0.3902995,0.14405307,0.103295624,inf,inf,inf,inf,1,1,1,1,3,1,3,2,5,1,1,1,0
537774624,537773282,31044075,49.078753500000005,2.2543773,-1.0954552,-2.4381373,1.8022158,-0.0069100135,-0.00015225113,0.25713933,-0.022140607,-0.03336886,-0.0036777551,-0.02439686,-0.036898524,0.010050106,0.041895274,-0.37302274,3.8003507,-1.6677835,-0.54459906,-0.112117834,99.7061,0.12174249,0.37310648,0.39095834,0.14455245,0.10347837,inf,inf,inf,inf,1,1,1,1,3,1,3,2,5,1,1,1,0
537785002,537783297,31044075,49.078753500000005,2.2543773,-1.0956699,-2.438826,1.8015256,-0.0069100135,-0.00015225113,0.25713933,-0.028783478,-0.04752654,-0.0072299554,-0.028429404,-0.036898524,0.010050106,0.041895274,-1.4314393,-0.037888575,-3.1996083,-0.5435087,-0.112117834,99.7061,0.12243271,0.37391016,0.38919064,0.14508052,0.10339985,inf,inf,inf,inf,1,1,1,1,3,1,3,2,5,1,1,1,0
537794590,537793297,31044075,49.078753500000005,2.2543773,-1.0958205,-2.439479,1.8007921,-0.0069100135,-0.00015225113,0.25713933,-0.014271132,-0.038982134,0.0020290685,-0.019621216,-0.036898524,0.010050106,0.041895274,-0.40924367,0.16617474,1.8949755,-0.5426866,-0.112117834,99.7061,0.1231662,0.37471896,0.38984966,0.14555228,0.10358465,inf,inf,inf,inf,1,1,1,1,3,1,3,2,5,1,1,1,0
537804698,537803304,31044075,49.078753500000005,2.2543773,-1.0960138,-2.4400904,1.8001026,-0.0069100135,-0.00015225113,0.25713933,-0.008550146,-0.043523278,0.01061588,-0.011456624,-0.036898524,0.010050106,0.041895274,4.3951097,-1.7096593,4.6348524,-0.54173034,-0.112117834,99.7061,0.12385571,0.3755327,0.3905108,0.14605704,0.10376748,inf,inf,inf,inf,1,1,1,1,3,1,3,2,5,1,1,1,0
537814430,537813312,31044075,49.078753500000005,2.2543773,-1.0961223,-2.4406838,1.7995393,-0.0069100135,-0.00015225113,0.25713933,-0.023170205,-0.032932356,-0.0070064645,-0.029473802,-0.036898524,0.010050106,0.041895274,-2.7386901,0.88359976,-3.9182398,-0.540766,-0.112117834,99.7061,0.124418974,0.37635148,0.3911741,0.14655489,0.10395012,inf,inf,inf,inf,1,1,1,1,3,1,3,2,5,1,1,1,0
537824555,537823319,31044075,49.078753500000005,2.2543773,-1.0962089,-2.4412882,1.798979,-0.0069100135,-0.00015225113,0.25713933,-0.009865461,-0.033896588,0.0131302625,-0.009705586,-0.036898524,0.010050106,0.041895274,-1.087304,2.6296356,1.008369,-0.5394559,-0.112117834,99.7061,0.12497926,0.37717533,0.3918396,0.1470546,0.10413524,inf,inf,inf,inf,1,1,1,1,3,1,3,2,5,1,1,1,0
537834630,537833326,31044075,49.078753500000005,2.2543773,-1.0963469,-2.4418824,1.7985123,-0.0069100135,-0.00015225113,0.25713933,-0.007512971,-0.048807357,0.013438167,-0.009740756,-0.036898524,0.010050106,0.041895274,2.9488864,-2.1271522,0.37410256,-0.538172,-0.112117834,99.7061,0.12544596,0.3780043,0.3925072,0.14750566,0.10431872,inf,inf,inf,inf,1,1,1,1,3,1,3,2,5,1,1,1,0
537846713,537843333,31044075,49.078753500000005,2.2543773,-1.0968618,-2.4430697,1.7982153,-0.0069100135,-0.00015225113,0.25713933,-0.019318677,-0.045621198,0.013245079,-0.010057281,-0.036898524,0.010050106,0.041895274,-0.6502355,-1.7357718,1.9349259,-0.53752494,-0.112117834,99.7061,0.12574303,0.3624667,0.38662523,0.13876165,0.101544105,inf,inf,inf,inf,1,1,1,1,3,1,3,2,5,1,1,1,0
537854697,537853345,31044075,49.078753500000005,2.2543773,-1.0974072,-2.4441986,1.797967,-0.0069100135,-0.00015225113,0.25713933,-0.028945895,-0.030374106,0.009883053,-0.013527808,-0.036898524,0.010050106,0.041895274,-3.0553327,2.0521183,-0.66466343,-0.5366739,-0.112117834,99.7061,0.12599134,0.36320847,0.38726568,0.13921274,0.101726815,inf,inf,inf,inf,1,1,1,1,3,1,3,2,5,1,1,1,0
537864664,537863347,31044075,49.078753500000005,2.2543773,-1.0979633,-2.4453073,1.7977229,-0.0069100135,-0.00015225113,0.25713933,-0.024130907,-0.036889937,-0.002897145,-0.026402252,-0.036898524,0.010050106,0.041895274,-1.7034053,1.8963659,-4.406379,-0.5357519,-0.112117834,99.7061,0.12623537,0.36395493,0.38790825,0.13970768,0.101909004,inf,inf,inf,inf,1,1,1,1,3,1,3,2,5,1,1,1,0
537874677,537873359,31044075,49.078753500000005,2.2543773,-1.0985507,-2.4463067,1.7974305,-0.0069100135,-0.00015225113,0.25713933,-0.010537452,-0.036437817,0.017794034,-0.005791569,-0.036898524,0.010050106,0.041895274,4.527852,-2.0393987,3.0384607,-0.5350264,-0.112117834,99.7061,0.12652779,0.3647062,0.38855293,0.14021643,0.10209141,inf,inf,inf,inf,1,1,1,1,3,1,3,2,5,1,1,1,0
537885165,537883535,31044075,49.078753500000005,2.2543773,-1.099175,-2.4472513,1.7971288,-0.0069100135,-0.00015225113,0.25713933,-0.03534685,-0.02459453,0.0100765135,-0.013576462,-0.036898524,0.010050106,0.041895274,0.15522829,0.27938065,3.6770008,-0.5346846,-0.112117834,99.7061,0.1268295,0.36546227,0.3891997,0.14074394,0.102272876,inf,inf,inf,inf,1,1,1,1,3,1,3,2,5,1,1,1,0
537895226,537893499,31044075,49.078753500000005,2.2543773,-1.099771,-2.4481297,1.796657,-0.0069100135,-0.00015225113,0.25713933,-0.039786346,-0.022072602,-0.010385627,-0.034318894,-0.036898524,0.010050106,0.041895274,-4.2445197,0.87466955,-5.0601435,-0.5341882,-0.112117834,99.7061,0.12730134,0.36622334,0.3874525,0.14125502,0.10220303,inf,inf,inf,inf,1,1,1,1,3,1,3,2,5,1,1,1,0
537904751,537903462,31044075,49.078753500000005,2.2543773,-1.1003834,-2.4489462,1.7961104,-0.0069100135,-0.00015225113,0.25713933,-0.025710162,-0.017796442,0.0024175358,-0.021774026,-0.036898524,0.010050106,0.041895274,0.5107105,0.86669654,0.5744622,-0.5335131,-0.112117834,99.7061,0.12784791,0.3669893,0.3880995,0.14172284,0.1023849,inf,inf,inf,inf,1,1,1,1,3,1,3,2,5,1,1,1,0
537915062,537913415,31044075,49.078753500000005,2.2543773,-1.1010154,-2.4497154,1.7955999,-0.0069100135,-0.00015225113,0.25713933,-0.023783624,-0.019498583,0.0018674082,-0.022561168,-0.036898524,0.010050106,0.041895274,3.8450828,-0.24461278,1.1420925,-0.5331203,-0.112117834,99.7061,0.12835836,0.36776012,0.38874862,0.14219378,0.102567665,inf,inf,inf,inf,1,1,1,1,3,1,3,2,5,1,1,1,0
537925155,537923397,31044075,49.078753500000005,2.2543773,-1.101626,-2.4504485,1.7950938,-0.0069100135,-0.00015225113,0.25713933,-0.038164746,-0.0128367,-0.0016066076,-0.026251871,-0.036898524,0.010050106,0.041895274,-0.9059897,1.0157186,0.49832094,-0.5328371,-0.112117834,99.7061,0.1,0.36853576,0.38939983,0.14275904,0.102750264,inf,inf,inf,inf,1,1,1,1,3,1,3,2,5,1,1,1,0
537935051,537933402,31044075,49.078753500000005,2.2543773,-1.1022213,-2.4511683,1.7946497,-0.0069100135,-0.00015225113,0.25713933,-0.037239403,-0.0254551,0.001630575,-0.02321188,-0.036898524,0.010050106,0.041895274,-2.4707203,-1.6931931,-0.7086334,-0.5324628,-0.112117834,99.7061,0.1,0.36931655,0.39005315,0.14311962,0.10293166,inf,inf,inf,inf,1,1,1,1,3,1,3,2,5,1,1,1,0
537945133,537943405,31044075,49.078753500000005,2.2543773,-1.1028297,-2.4518676,1.793959,-0.0069100135,-0.00015225113,0.25713933,-0.032471046,-0.016053904,0.0026606936,-0.022614572,-0.036898524,0.010050106,0.041895274,0.0070527853,-0.15775734,0.43956548,-0.5321732,-0.112117834,99.7061,0.1,0.37010202,0.38829675,0.1435501,0.10285624,inf,inf,inf,inf,1,1,1,1,3,1,3,2,5,1,1,1,0
537955165,537953416,31044075,49.078753500000005,2.2543773,-1.1034495,-2.4525783,1.7932812,-0.0069100135,-0.00015225113,0.25713933,-0.032797985,-0.013785536,-0.0015369311,-0.027215732,-0.036898524,0.010050106,0.041895274,1.1597311,2.6161778,-0.15708931,-0.53168756,-0.112117834,99.7061,0.1,0.3708925,0.3889503,0.14398456,0.10303812,inf,inf,inf,inf,1,1,1,1,3,1,3,2,5,1,1,1,0
537964754,537963420,31044075,49.078753500000005,2.2543773,-1.1040883,-2.4532645,1.7926977,-0.0069100135,-0.00015225113,0.25713933,-0.040217154,-0.024675224,0.0065615317,-0.019492762,-0.036898524,0.010050106,0.041895274,-0.119594984,-0.5990947,-0.969656,-0.5312461,-0.112117834,99.7061,0.1,0.37168792,0.38960597,0.14443222,0.10321947,inf,inf,inf,inf,1,1,1,1,3,1,3,2,5,1,1,1,0
537975220,537973427,31044075,49.078753500000005,2.2543773,-1.104702,-2.4539337,1.7921188,-0.0069100135,-0.00015225113,0.25713933,-0.034983538,-0.029673368,0.015215339,-0.01118742,-0.036898524,0.010050106,0.041895274,-0.09967182,-3.0322232,3.0496035,-0.53120893,-0.112117834,99.7061,0.1,0.37248844,0.39026377,0.14491223,0.10340159,inf,inf,inf,inf,1,1,1,1,3,1,3,2,5,1,1,1,0
537984767,537983437,31044075,49.078753500000005,2.2543773,-1.1053311,-2.4545975,1.7915573,-0.0069100135,-0.00015225113,0.25713933,-0.037013676,-0.018114494,0.0042366628,-0.022488697,-0.036898524,0.010050106,0.041895274,0.83565766,0.3439124,0.8667116,-0.5310346,-0.112117834,99.7061,0.1,0.37329406,0.39092374,0.1452743,0.10358321,inf,inf,inf,inf,1,1,1,1,3,1,3,2,5,1,1,1,0
537994989,537993443,31044075,49.078753500000005,2.2543773,-1.1058992,-2.4552886,1.7910743,-0.0069100135,-0.00015225113,0.25713933,-0.039981958,-0.01921067,0.000598561,-0.026424335,-0.036898524,0.010050106,0.041895274,-2.313367,2.9141233,-3.4158256,-0.5304936,-0.112117834,99.7061,0.1,0.3741045,0.3915858,0.14574608,0.10376524,inf,inf,inf,inf,1,1,1,1,3,1,3,2,5,1,1,1,0
538005155,538003449,31044075,49.078753500000005,2.2543773,-1.1064755,-2.4559624,1.7903528,-0.0069100135,-0.00015225113,0.25713933,-0.03250356,-0.02792207,0.00596614,-0.021542454,-0.036898524,0.010050106,0.041895274,0.06252734,0.19133009,-0.3009639,-0.52990824,-0.112117834,99.7061,0.1,0.37492007,0.38980967,0.14625607,0.10368275,inf,inf,inf,inf,1,1,1,1,3,1,3,2,5,1,1,1,0
538015069,538013456,31044075,49.078753500000005,2.2543773,-1.1070863,-2.4566028,1.7896475,-0.0069100135,-0.00015225113,0.25713933,-0.032647196,-0.032001097,0.009575568,-0.018386334,-0.036898524,0.010050106,0.041895274,2.3662329,-2.5801895,1.7371072,-0.52967364,-0.112117834,99.7061,0.1,0.37574098,0.39047194,0.1466466,0.103864454,inf,inf,inf,inf,1,1,1,1,3,1,3,2,5,1,1,1,0
538025079,538023463,31044075,49.078753500000005,2.2543773,-1.1076612,-2.4572623,1.7889177,-0.0069100135,-0.00015225113,0.25713933,-0.0400784,-0.023067119,0.0009956931,-0.02738832,-0.036898524,0.010050106,0.041895274,-0.9091569,1.0736094,1.6167803,-0.5297308,-0.112117834,99.7061,0.1,0.3765668,0.39113632,0.14708556,0.10404679,inf,inf,inf,inf,1,1,1,1,3,1,3,2,5,1,1,1,0
538035013,538033471,31044075,49.078753500000005,2.2543773,-1.1082807,-2.4578905,1.7882035,-0.0069100135,-0.00015225113,0.25713933,-0.04682557,-0.02823187,-0.009954148,-0.038730323,-0.036898524,0.010050106,0.041895274,-1.6381905,-0.21954785,-2.104609,-0.52938324,-0.112117834,99.7061,0.1,0.3773977,0.39180285,0.14753823,0.1042292,inf,inf,inf,inf,1,1,1,1,3,1,3,2,5,1,1,1,0
538045792,538043479,31044075,49.078753500000005,2.2543773,-1.1085913,-2.45879,1.7874461,-0.0069100135,-0.00015225113,0.25713933,-0.038160905,-0.025339497,-0.0077535054,-0.03692689,-0.036898524,0.010050106,0.041895274,-1.5642585,-0.5003729,-1.1797783,-0.5292869,-0.112117834,99.7061,0.1,0.36182463,0.38832098,0.13863313,0.10171006,inf,inf,inf,inf,1,1,1,1,3,1,3,2,5,1,1,1,0
538055204,538053486,31044075,49.078753500000005,2.2543773,-1.1089121,-2.4596674,1.7865621,-0.0069100135,-0.00015225113,0.25713933,-0.02663227,-0.012923247,-0.008712403,-0.038375277,-0.036898524,0.010050106,0.041895274,3.0751116,3.5572047,0.024160216,-0.5288854,-0.112117834,99.7061,0.1,0.3625681,0.3865845,0.13905679,0.10164128,inf,inf,inf,inf,1,1,1,1,3,1,3,2,5,1,1,1,0
538065045,538063492,31044075,49.078753500000005,2.2543773,-1.1091977,-2.4604938,1.7857727,-0.0069100135,-0.00015225113,0.25713933,-0.037765417,-0.026126213,-0.0026247464,-0.032743663,-0.036898524,0.010050106,0.041895274,-0.5332091,-0.12733667,-0.89613986,-0.52851355,-0.112117834,99.7061,0.1,0.36331633,0.38722602,0.13949922,0.10182221,inf,inf,inf,inf,1,1,1,1,3,1,3,2,5,1,1,1,0
538075173,538073499,31044075,49.078753500000005,2.2543773,-1.1094451,-2.461236,1.7850301,-0.0069100135,-0.00015225113,0.25713933,-0.032594945,-0.023117661,0.01720063,-0.013342184,-0.036898524,0.010050106,0.041895274,-1.6580858,-2.9580777,4.7961326,-0.52857566,-0.112117834,99.7061,0.1,0.36406937,0.3878697,0.13989872,0.10200394,inf,inf,inf,inf,1,1,1,1,3,1,3,2,5,1,1,1,0
538085054,538083507,31044075,49.078753500000005,2.2543773,-1.1097372,-2.461997,1.7843907,-0.0069100135,-0.00015225113,0.25713933,-0.022011913,-0.015039157,0.005689028,-0.02524673,-0.036898524,0.010050106,0.041895274,3.7380674,1.3058953,0.34254333,-0.52841264,-0.112117834,99.7061,0.1,0.36482716,0.38851544,0.14029719,0.102185205,inf,inf,inf,inf,1,1,1,1,3,1,3,2,5,1,1,1,0
538095193,538093515,31044075,49.078753500000005,2.2543773,-1.109953,-2.462736,1.7837791,-0.0069100135,-0.00015225113,0.25713933,-0.04042561,-0.01315658,-0.007911613,-0.039210606,-0.036898524,0.010050106,0.041895274,-3.7808118,2.6238441,-4.9182763,-0.5281416,-0.112117834,99.7061,0.1,0.36558965,0.38916332,0.14076652,0.10236599,inf,inf,inf,inf,1,1,1,1,3,1,3,2,5,1,1,1,0
538105410,538103521,31044075,49.078753500000005,2.2543773,-1.1101763,-2.4634247,1.7829914,-0.0069100135,-0.00015225113,0.25713933,-0.024797136,-0.024509652,0.014445402,-0.017414179,-0.036898524,0.010050106,0.041895274,-0.7679184,-1.6354529,-0.5915916,-0.52744615,-0.112117834,99.7061,0.1,0.36635715,0.38741785,0.14121008,0.102293715,inf,inf,inf,inf,1,1,1,1,3,1,3,2,5,1,1,1,0
538114920,538113529,31044075,49.078753500000005,2.2543773,-1.1103857,-2.4641018,1.7822262,-0.0069100135,-0.00015225113,0.25713933,-0.013405543,-0.025075963,0.020417323,-0.011965411,-0.036898524,0.010050106,0.041895274,3.5836084,-2.5748491,3.7464647,-0.5271642,-0.112117834,99.7061,0.1,0.3671295,0.38806593,0.14162175,0.10247535,inf,inf,inf,inf,1,1,1,1,3,1,3,2,5,1,1,1,0
538125348,538123536,31044075,49.078753500000005,2.2543773,-1.1105777,-2.464727,1.7814342,-0.0069100135,-0.00015225113,0.25713933,-0.023333054,-0.009309063,-0.0038873532,-0.03675729,-0.036898524,0.010050106,0.041895274,1.1034285,0.70607483,-0.6140627,-0.52736986,-0.112117834,99.7061,0.1,0.3679067,0.38871613,0.14204103,0.10265703,inf,inf,inf,inf,1,1,1,1,3,1,3,2,5,1,1,1,0
538134779,538133547,31044075,49.078753500000005,2.2543773,-1.1107266,-2.465298,1.7806199,-0.0069100135,-0.00015225113,0.25713933,-0.025329739,-0.009921997,-0.0013214919,-0.034644045,-0.036898524,0.010050106,0.041895274,-2.258925,0.69192237,-0.12330761,-0.52740383,-0.112117834,99.7061,0.1,0.3686887,0.38936844,0.14250539,0.10283834,inf,inf,inf,inf,1,1,1,1,3,1,3,2,5,1,1,1,0
538144921,538143721,31044075,49.078753500000005,2.2543773,-1.1108639,-2.4658053,1.7798641,-0.0069100135,-0.00015225113,0.25713933,-0.017779978,-0.007960087,-0.001641129,-0.03538302,-0.036898524,0.010050106,0.041895274,-0.86659056,-0.65217936,-1.2164385,-0.52723044,-0.112117834,99.7061,0.1,0.36947572,0.3900229,0.14297801,0.10302039,inf,inf,inf,inf,1,1,1,1,3,1,3,2,5,1,1,1,0
538154884,538153683,31044075,49.078753500000005,2.2543773,-1.1109443,-2.4662588,1.7791096,-0.0069100135,-0.00015225113,0.25713933,-0.0030271008,0.0056985253,-0.0014040199,-0.035533052,-0.036898524,0.010050106,0.041895274,2.0788367,2.2208452,-0.20346308,-0.5270223,-0.112117834,99.7061,0.1,0.37026778,0.39067948,0.14340486,0.103201754,inf,inf,inf,inf,1,1,1,1,3,1,3,2,5,1,1,1,0
538165175,538163646,31044075,49.078753500000005,2.2543773,-1.1109681,-2.4666998,1.7783681,-0.0069100135,-0.00015225113,0.25713933,-0.00399945,-0.004812964,-0.0007754527,-0.035326395,-0.036898524,0.010050106,0.041895274,1.0423704,0.69583386,-2.0612957,-0.52675956,-0.112117834,99.7061,0.1,0.37106475,0.38891467,0.1438446,0.10312225,inf,inf,inf,inf,1,1,1,1,3,1,3,2,5,1,1,1,0
538174938,538173607,31044075,49.078753500000005,2.2543773,-1.1109561,-2.4670367,1.7776338,-0.0069100135,-0.00015225113,0.25713933,-0.0012973222,0.003136035,0.010799328,-0.024141025,-0.036898524,0.010050106,0.041895274,0.30426624,-1.4669335,2.2488496,-0.52672434,-0.112117834,99.7061,0.1,0.37186667,0.3895714,0.1442582,0.10330496,inf,inf,inf,inf,1,1,1,1,3,1,3,2,5,1,1,1,0
538184899,538183580,31044075,49.078753500000005,2.2543773,-1.1109222,-2.4673893,1.7768923,-0.0069100135,-0.00015225113,0.25713933,0.0058037573,-0.00087170827,0.007128014,-0.028170645,-0.036898524,0.010050106,0.041895274,1.7128747,-0.74630505,3.7724667,-0.52685046,-0.112117834,99.7061,0.1,0.37267354,0.3902303,0.14462435,0.103486665,inf,inf,inf,inf,1,1,1,1,3,1,3,2,5,1,1,1,0
538194826,538193587,31044075,49.078753500000005,2.2543773,-1.1108512,-2.4676962,1.7762554,-0.0069100135,-0.00015225113,0.25713933,-0.0017456476,0.008191973,-0.0044630533,-0.040090147,-0.036898524,0.010050106,0.041895274,-1.2599758,0.3719893,-3.1647947,-0.527051,-0.112117834,99.7061,0.1,0.37348512,0.39089128,0.14510413,0.1036682,inf,inf,inf,inf,1,1,1,1,3,1,3,2,5,1,1,1,0
538204797,538203594,31044075,49.078753500000005,2.2543773,-1.1107506,-2.4680014,1.7755456,-0.0069100135,-0.00015225113,0.25713933,0.010758396,0.010954993,0.0071941265,-0.02873272,-0.036898524,0.010050106,0.041895274,0.44647232,2.703889,2.9234934,-0.5269942,-0.112117834,99.7061,0.1,0.37430185,0.39155445,0.14559264,0.10385066,inf,inf,inf,inf,1,1,1,1,3,1,3,2,5,1,1,1,0
538215139,538213602,31044075,49.078753500000005,2.2543773,-1.1106603,-2.4683003,1.7747372,-0.0069100135,-0.00015225113,0.25713933,0.010116028,0.0030536666,-0.010319142,-0.046711024,-0.036898524,0.010050106,0.041895274,1.7903047,0.9002365,-3.9857724,-0.52703106,-0.112117834,99.7061,0.1,0.37512374,0.38977996,0.1459497,0.10376777,inf,inf,inf,inf,1,1,1,1,3,1,3,2,5,1,1,1,0
538224846,538223609,31044075,49.078753500000005,2.2543773,-1.1104974,-2.4685972,1.7739749,-0.0069100135,-0.00015225113,0.25713933,0.0070471093,0.0024248534,0.0033096238,-0.0335123,-0.036898524,0.010050106,0.041895274,-2.026531,0.26924694,-2.1669812,-0.52685535,-0.112117834,99.7061,0.1,0.3759504,0.39044324,0.14636801,0.103949934,inf,inf,inf,inf,1,1,1,1,3,1,3,2,5,1,1,1,0
538234949,538233619,31044075,49.078753500000005,2.2543773,-1.1103175,-2.4688692,1.7731775,-0.0069100135,-0.00015225113,0.25713933,0.024909904,-0.0026541816,0.014510521,-0.022707725,-0.036898524,0.010050106,0.041895274,2.4048383,-1.8213787,5.172453,-0.5267803,-0.112117834,99.7061,0.1,0.37678203,0.39110872,0.14689891,0.10413192,inf,inf,inf,inf,1,1,1,1,3,1,3,2,5,1,1,1,0
538244934,538243625,31044075,49.078753500000005,2.2543773,-1.1101414,-2.4690983,1.7724475,-0.0069100135,-0.00015225113,0.25713933,0.01928869,-0.004128153,0.004742668,-0.03283953,-0.036898524,0.010050106,0.041895274,2.535892,-3.9567313,1.7685245,-0.52741843,-0.112117834,99.7061,0.1,0.37761903,0.39177632,0.14733148,0.10431457,inf,inf,inf,inf,1,1,1,1,3,1,3,2,5,1,1,1,0
538255694,538253630,31044075,49.078753500000005,2.2543773,-1.110163,-2.4697797,1.7718018,-0.0069100135,-0.00015225113,0.25713933,0.007915976,0.026563188,-0.00011900731,-0.037988577,-0.036898524,0.010050106,0.041895274,-2.0674202,6.6080036,-1.2855903,-0.52769125,-0.112117834,99.7061,0.1,0.36185548,0.38828263,0.13844955,0.10178824,inf,inf,inf,inf,1,1,1,1,3,1,3,2,5,1,1,1,0
538265044,538263642,31044075,49.078753500000005,2.2543773,-1.1102026,-2.470401,1.7711343,-0.0069100135,-0.00015225113,0.25713933,0.011735355,0.0042502177,-0.006335107,-0.044484433,-0.036898524,0.010050106,0.041895274,-1.0890743,1.6725056,-2.5820942,-0.52775145,-0.112117834,99.7061,0.1,0.36260447,0.3865478,0.1388775,0.10171886,inf,inf,inf,inf,1,1,1,1,3,1,3,2,5,1,1,1,0
538275030,538273648,31044075,49.078753500000005,2.2543773,-1.1102438,-2.470899,1.7704917,-0.0069100135,-0.00015225113,0.25713933,0.007924597,0.0063489536,0.0016299898,-0.03677132,-0.036898524,0.010050106,0.041895274,-1.5264491,-3.7785616,-0.91785246,-0.52800894,-0.112117834,99.7061,0.1,0.3633582,0.38719034,0.1393021,0.1019007,inf,inf,inf,inf,1,1,1,1,3,1,3,2,5,1,1,1,0
538284812,538283651,31044075,49.078753500000005,2.2543773,-1.1103201,-2.4714267,1.7698909,-0.0069100135,-0.00015225113,0.25713933,0.008061318,0.017566001,0.008540504,-0.030086353,-0.036898524,0.010050106,0.041895274,-0.2656377,1.8447183,1.2687219,-0.5278826,-0.112117834,99.7061,0.1,0.3641167,0.387835,0.13969144,0.102081776,inf,inf,inf,inf,1,1,1,1,3,1,3,2,5,1,1,1,0
538295306,538293659,31044075,49.078753500000005,2.2543773,-1.110351,-2.471836,1.7693464,-0.0069100135,-0.00015225113,0.25713933,0.01550705,0.019864585,-0.0021831475,-0.04101004,-0.036898524,0.010050106,0.041895274,0.4039537,-0.14051202,-2.4200675,-0.52822125,-0.112117834,99.7061,0.1,0.36487988,0.38848174,0.14013375,0.10226352,inf,inf,inf,inf,1,1,1,1,3,1,3,2,5,1,1,1,0
538304796,538303667,31044075,49.078753500000005,2.2543773,-1.1103861,-2.4721363,1.7687364,-0.0069100135,-0.00015225113,0.25713933,0.014806699,0.02387693,0.016011024,-0.022991432,-0.036898524,0.010050106,0.041895274,1.2614933,-2.1983697,5.371244,-0.52837294,-0.112117834,99.7061,0.1,0.36564785,0.38913062,0.1406072,0.10244509,inf,inf,inf,inf,1,1,1,1,3,1,3,2,5,1,1,1,0
538314971,538313674,31044075,49.078753500000005,2.2543773,-1.1104305,-2.4724624,1.7681912,-0.0069100135,-0.00015225113,0.25713933,0.013541852,0.027911214,-0.0023922208,-0.04154684,-0.036898524,0.010050106,0.041895274,1.3173809,1.4147542,-0.0030788346,-0.5284873,-0.112117834,99.7061,0.1,0.36642075,0.3897816,0.14099954,0.10262672,inf,inf,inf,inf,1,1,1,1,3,1,3,2,5,1,1,1,0
538325234,538323681,31044075,49.078753500000005,2.2543773,-1.1104348,-2.4726894,1.7675327,-0.0069100135,-0.00015225113,0.25713933,0.0043625943,0.039445836,-0.009308534,-0.048718642,-0.036898524,0.010050106,0.041895274,-2.9183865,2.2227821,-3.6282077,-0.5285815,-0.112117834,99.7061,0.1,0.36719838,0.38802782,0.14149378,0.102552906,inf,inf,inf,inf,1,1,1,1,3,1,3,2,5,1,1,1,0
538335000,538333688,31044075,49.078753500000005,2.2543773,-1.1104884,-2.4728854,1.7668254,-0.0069100135,-0.00015225113,0.25713933,0.012922863,0.038151763,-0.003953105,-0.04359158,-0.036898524,0.010050106,0.041895274,0.7853964,2.5559797,0.06445686,-0.5285635,-0.112117834,99.7061,0.1,0.36798105,0.388679,0.14187962,0.102735266,inf,inf,inf,inf,1,1,1,1,3,1,3,2,5,1,1,1,0
538344916,538343695,31044075,49.078753500000005,2.2543773,-1.1105722,-2.473066,1.766219,-0.0069100135,-0.00015225113,0.25713933,0.0061263028,0.022010082,0.0023766153,-0.03746425,-0.036898524,0.010050106,0.041895274,0.9805289,-2.3065045,-0.43363872,-0.5285292,-0.112117834,99.7061,0.1,0.36876842,0.38933232,0.14227495,0.1029177,inf,inf,inf,inf,1,1,1,1,3,1,3,2,5,1,1,1,0
538354987,538353702,31044075,49.078753500000005,2.2543773,-1.1106522,-2.4732268,1.7655268,-0.0069100135,-0.00015225113,0.25713933,-0.003991682,0.039849434,-0.017357545,-0.057375774,-0.036898524,0.010050106,0.041895274,-2.6197937,1.202205,-1.2848023,-0.52839583,-0.112117834,99.7061,0.1,0.36956057,0.38998777,0.14274493,0.10310052,inf,inf,inf,inf,1,1,1,1,3,1,3,2,5,1,1,1,0
538365012,538363710,31044075,49.078753500000005,2.2543773,-1.1108077,-2.47337,1.7648735,-0.0069100135,-0.00015225113,0.25713933,-0.005212134,0.016789334,0.0056219613,-0.034549903,-0.036898524,0.010050106,0.041895274,-0.8968372,-3.7586126,2.911121,-0.5288016,-0.112117834,99.7061,0.1,0.37035766,0.39064533,0.1432026,0.103282176,inf,inf,inf,inf,1,1,1,1,3,1,3,2,5,1,1,1,0
538375321,538373718,31044075,49.078753500000005,2.2543773,-1.1110153,-2.4735537,1.7641814,-0.0069100135,-0.00015225113,0.25713933,0.00023777162,0.027985208,-0.0004821641,-0.04092004,-0.036898524,0.010050106,0.041895274,2.773244,-0.2569715,0.3448742,-0.52873385,-0.112117834,99.7061,0.1,0.37115976,0.38888213,0.14365953,0.10320507,inf,inf,inf,inf,1,1,1,1,3,1,3,2,5,1,1,1,0
538384950,538383724,31044075,49.078753500000005,2.2543773,-1.1111754,-2.4737833,1.7634248,-0.0069100135,-0.00015225113,0.25713933,-0.007567319,0.029290654,-0.014950257,-0.055626225,-0.036898524,0.010050106,0.041895274,-0.8507618,3.5837545,-1.1029541,-0.5284528,-0.112117834,99.7061,0.1,0.37196684,0.3895399,0.14406927,0.10338818,inf,inf,inf,inf,1,1,1,1,3,1,3,2,5,1,1,1,0
538395250,538393946,31044075,49.078753500000005,2.2543773,-1.1114197,-2.4739392,1.7626839,-0.0069100135,-0.00015225113,0.25713933,-0.029343689,0.018676348,-0.025801487,-0.06668875,-0.036898524,0.010050106,0.041895274,-4.6390176,-1.477856,-5.315288,-0.5283201,-0.112117834,99.7061,0.1,0.3727788,0.39019978,0.14448467,0.10357101,inf,inf,inf,inf,1,1,1,1,3,1,3,2,5,1,1,1,0
538405213,538403909,31044075,49.078753500000005,2.2543773,-1.1117053,-2.4741807,1.7619158,-0.0069100135,-0.00015225113,0.25713933,-0.0051654493,0.007811588,0.0069475323,-0.034125265,-0.036898524,0.010050106,0.041895274,2.173452,-2.0933065,5.297414,-0.52798384,-0.112117834,99.7061,0.1,0.37359563,0.3908618,0.14496371,0.1037543,inf,inf,inf,inf,1,1,1,1,3,1,3,2,5,1,1,1,0
538415237,538413870,31044075,49.078753500000005,2.2543773,-1.1119866,-2.4743648,1.7612082,-0.0069100135,-0.00015225113,0.25713933,-0.012782461,0.017562846,-0.01841712,-0.059650794,-0.036898524,0.010050106,0.041895274,2.2910628,-2.0646565,-0.43559784,-0.5280864,-0.112117834,99.7061,0.1,0.3744175,0.391526,0.14533888,0.103937715,inf,inf,inf,inf,1,1,1,1,3,1,3,2,5,1,1,1,0
538425441,538423829,31044075,49.078753500000005,2.2543773,-1.1123174,-2.4745743,1.7603033,-0.0069100135,-0.00015225113,0.25713933,-0.027308475,0.023025086,-0.010339429,-0.051876675,-0.036898524,0.010050106,0.041895274,-0.6780485,2.190979,1.7311405,-0.5279529,-0.112117834,99.7061,0.1,0.37524423,0.38975307,0.14584756,0.10385557,inf,inf,inf,inf,1,1,1,1,3,1,3,2,5,1,1,1,0
538435193,538433789,31044075,49.078753500000005,2.2543773,-1.1125904,-2.4748156,1.7594976,-0.0069100135,-0.00015225113,0.25713933,-0.021464428,0.004304882,-0.021465234,-0.063276045,-0.036898524,0.010050106,0.041895274,-2.6931493,-1.0187054,-3.866691,-0.52779704,-0.112117834,99.7061,0.1,0.37607616,0.39041743,0.14631644,0.10403921,inf,inf,inf,inf,1,1,1,1,3,1,3,2,5,1,1,1,0
538445490,538443767,31044075,49.078753500000005,2.2543773,-1.112903,-2.4750495,1.7586583,-0.0069100135,-0.00015225113,0.25713933,-0.021193547,0.008927683,-0.0071062376,-0.049161796,-0.036898524,0.010050106,0.041895274,-0.35329577,-1.1573933,1.6992099,-0.52761316,-0.112117834,99.7061,0.1,0.37691316,0.39108393,0.14673969,0.10422316,inf,inf,inf,inf,1,1,1,1,3,1,3,2,5,1,1,1,0
538455782,538453774,31044075,49.078753500000005,2.2543773,-1.11244,-2.4749727,1.7578887,-0.0069100135,-0.00015225113,0.25713933,-0.0062844525,0.0004277564,-0.0024762524,-0.044794064,-0.036898524,0.010050106,0.041895274,4.362692,1.4980564,0.9069088,-0.5272952,-0.112117834,99.7061,0.1,0.36114478,0.38760963,0.13791423,0.10170584,inf,inf,inf,inf,1,1,1,1,3,1,3,2,5,1,1,1,0
538465333,538463782,31044075,49.078753500000005,2.2543773,-1.1119435,-2.4748766,1.757136,-0.0069100135,-0.00015225113,0.25713933,-0.024574254,0.0043285545,-0.014061462,-0.056612976,-0.036898524,0.010050106,0.041895274,-1.8671155,1.0926989,-1.7324135,-0.5274324,-0.112117834,99.7061,0.1,0.36189425,0.38825303,0.13841522,0.10188788,inf,inf,inf,inf,1,1,1,1,3,1,3,2,5,1,1,1,0
538474957,538473788,31044075,49.078753500000005,2.2543773,-1.1115528,-2.4747906,1.7563806,-0.0069100135,-0.00015225113,0.25713933,-0.026987042,-0.013827735,0.0012622946,-0.04149541,-0.036898524,0.010050106,0.041895274,-1.0322489,-3.5641012,2.8213542,-0.5275628,-0.112117834,99.7061,0.1,0.36264864,0.38889852,0.13876258,0.10207157,inf,inf,inf,inf,1,1,1,1,3,1,3,2,5,1,1,1,0
538485331,538483796,31044075,49.078753500000005,2.2543773,-1.1111639,-2.47475,1.7556523,-0.0069100135,-0.00015225113,0.25713933,-0.019950666,-0.0075689405,-0.007452027,-0.05045767,-0.036898524,0.010050106,0.041895274,0.21882337,-1.6668786,-1.0515022,-0.52746564,-0.112117834,99.7061,0.1,0.3634075,0.3871556,0.13921684,0.10200155,inf,inf,inf,inf,1,1,1,1,3,1,3,2,5,1,1,1,0
538495110,538493806,31044075,49.078753500000005,2.2543773,-1.1107832,-2.4746625,1.7547982,-0.0069100135,-0.00015225113,0.25713933,-0.026287898,0.011434053,-0.022139749,-0.06536514,-0.036898524,0.010050106,0.041895274,-1.3999097,2.9727983,-0.28310743,-0.52723086,-0.112117834,99.7061,0.1,0.36417115,0.38780132,0.13969997,0.10218464,inf,inf,inf,inf,1,1,1,1,3,1,3,2,5,1,1,1,0
538505093,538503810,31044075,49.078753500000005,2.2543773,-1.1104777,-2.4745858,1.7540622,-0.0069100135,-0.00015225113,0.25713933,-0.024663879,-0.0029203445,-0.0023154886,-0.04573324,-0.036898524,0.010050106,0.041895274,0.641854,1.0475496,0.25747377,-0.5271204,-0.112117834,99.7061,0.1,0.36493978,0.38844916,0.14017764,0.10236864,inf,inf,inf,inf,1,1,1,1,3,1,3,2,5,1,1,1,0
538515134,538513818,31044075,49.078753500000005,2.2543773,-1.1101662,-2.474522,1.7533858,-0.0069100135,-0.00015225113,0.25713933,-0.02089694,-0.0035404223,-0.0025169554,-0.046101075,-0.036898524,0.010050106,0.041895274,0.9890289,-0.03951195,0.82003784,-0.5269107,-0.112117834,99.7061,0.1,0.3657133,0.38909912,0.14049272,0.10255174,inf,inf,inf,inf,1,1,1,1,3,1,3,2,5,1,1,1,0
538525122,538523824,31044075,49.078753500000005,2.2543773,-1.1098989,-2.4744182,1.7526486,-0.0069100135,-0.00015225113,0.25713933,-0.02898458,-0.0078118388,-0.010688821,-0.054414567,-0.036898524,0.010050106,0.041895274,0.16361503,-3.0619268,1.7715797,-0.5268809,-0.112117834,99.7061,0.1,0.36649126,0.38975123,0.14101678,0.10273473,inf,inf,inf,inf,1,1,1,1,3,1,3,2,5,1,1,1,0
538535433,538533833,31044075,49.078753500000005,2.2543773,-1.109663,-2.4743266,1.7518032,-0.0069100135,-0.00015225113,0.25713933,-0.03949821,0.00061483076,-0.009582056,-0.05360757,-0.036898524,0.010050106,0.041895274,-3.1494598,-0.3334509,-0.65454364,-0.52676404,-0.112117834,99.7061,0.1,0.36727434,0.38799912,0.14142272,0.1026612,inf,inf,inf,inf,1,1,1,1,3,1,3,2,5,1,1,1,0
538545116,538543839,31044075,49.078753500000005,2.2543773,-1.1094297,-2.4742236,1.750964,-0.0069100135,-0.00015225113,0.25713933,-0.030625181,0.007206744,-0.018836705,-0.06313111,-0.036898524,0.010050106,0.041895274,-2.1879187,2.1044874,-2.590302,-0.52666914,-0.112117834,99.7061,0.1,0.36806214,0.38865143,0.14189444,0.10284545,inf,inf,inf,inf,1,1,1,1,3,1,3,2,5,1,1,1,0
538555201,538553846,31044075,49.078753500000005,2.2543773,-1.1092772,-2.4740648,1.7500732,-0.0069100135,-0.00015225113,0.25713933,-0.025386684,0.00465223,-0.014868331,-0.05940192,-0.036898524,0.010050106,0.041895274,2.8882654,-0.24730901,0.8123856,-0.52638674,-0.112117834,99.7061,0.1,0.36885488,0.3893059,0.14227958,0.10302874,inf,inf,inf,inf,1,1,1,1,3,1,3,2,5,1,1,1,0
538565180,538563854,31044075,49.078753500000005,2.2543773,-1.1091278,-2.4740057,1.7492365,-0.0069100135,-0.00015225113,0.25713933,-0.031088268,-0.004353064,-0.0123031195,-0.057047404,-0.036898524,0.010050106,0.041895274,1.3694204,0.9300036,0.84761494,-0.5260685,-0.112117834,99.7061,0.1,0.36965236,0.38996246,0.14269947,0.10321251,inf,inf,inf,inf,1,1,1,1,3,1,3,2,5,1,1,1,0
538575214,538573861,31044075,49.078753500000005,2.2543773,-1.108959,-2.4739504,1.7484914,-0.0069100135,-0.00015225113,0.25713933,-0.036545306,-0.013123576,-0.011578047,-0.05650563,-0.036898524,0.010050106,0.041895274,-2.1623354,-2.3792713,-1.3711141,-0.52604365,-0.112117834,99.7061,0.1,0.3704546,0.3906212,0.14318016,0.10339645,inf,inf,inf,inf,1,1,1,1,3,1,3,2,5,1,1,1,0
538585547,538583868,31044075,49.078753500000005,2.2543773,-1.1088179,-2.47397,1.7474824,-0.0069100135,-0.00015225113,0.25713933,-0.028976861,-0.021980489,-0.007951814,-0.05325926,-0.036898524,0.010050106,0.041895274,0.09817285,-2.9534516,2.5521655,-0.5261564,-0.112117834,99.7061,0.1,0.37126195,0.3888596,0.14356236,0.10331957,inf,inf,inf,inf,1,1,1,1,3,1,3,2,5,1,1,1,0
538595444,538593875,31044075,49.078753500000005,2.2543773,-1.1086799,-2.4740396,1.7465613,-0.0069100135,-0.00015225113,0.25713933,-0.01887346,-0.01578691,-0.00875393,-0.054406174,-0.036898524,0.010050106,0.041895274,3.4622748,-0.049891036,0.38747096,-0.5261568,-0.112117834,99.7061,0.1,0.372074,0.3895185,0.1440342,0.10350308,inf,inf,inf,inf,1,1,1,1,3,1,3,2,5,1,1,1,0
538605089,538603882,31044075,49.078753500000005,2.2543773,-1.1085345,-2.4741096,1.7455884,-0.0069100135,-0.00015225113,0.25713933,-0.036077123,-0.0021587617,-0.02554377,-0.071507305,-0.036898524,0.010050106,0.041895274,-1.5313643,4.7411885,-1.4416168,-0.5259774,-0.112117834,99.7061,0.1,0.37289107,0.39017957,0.14453055,0.103686325,inf,inf,inf,inf,1,1,1,1,3,1,3,2,5,1,1,1,0
538615229,538613890,31044075,49.078753500000005,2.2543773,-1.108475,-2.4742,1.7446895,-0.0069100135,-0.00015225113,0.25713933,-0.045438208,-0.032206092,-0.0132051455,-0.059447758,-0.036898524,0.010050106,0.041895274,-3.0942106,-1.9763048,-1.2987251,-0.52584153,-0.112117834,99.7061,0.1,0.37371325,0.3908428,0.1448984,0.10387103,inf,inf,inf,inf,1,1,1,1,3,1,3,2,5,1,1,1,0
538624999,538623897,31044075,49.078753500000005,2.2543773,-1.1083782,-2.4742758,1.7437316,-0.0069100135,-0.00015225113,0.25713933,-0.025960075,-0.016435044,-0.024647957,-0.07113875,-0.036898524,0.010050106,0.041895274,-0.14626329,-0.8222872,-0.012117887,-0.5257545,-0.112117834,99.7061,0.1,0.37454018,0.39150816,0.14534129,0.10405515,inf,inf,inf,inf,1,1,1,1,3,1,3,2,5,1,1,1,0
538635209,538633904,31044075,49.078753500000005,2.2543773,-1.1083412,-2.4742398,1.7426958,-0.0069100135,-0.00015225113,0.25713933,-0.031522248,-0.009976664,-0.024848161,-0.07155754,-0.036898524,0.010050106,0.041895274,2.0829334,-1.8771344,3.0592315,-0.5262093,-0.112117834,99.7061,0.1,0.37537205,0.3921757,0.1458141,0.104239784,inf,inf,inf,inf,1,1,1,1,3,1,3,2,5,1,1,1,0
538645308,538643912,31044075,49.078753500000005,2.2543773,-1.1083437,-2.4743273,1.7419091,-0.0069100135,-0.00015225113,0.25713933,-0.038305078,-0.0095471265,-0.036130194,-0.082920775,-0.036898524,0.010050106,0.041895274,0.52351874,3.7868428,-5.0139894,-0.52625763,-0.112117834,99.7061,0.1,0.37620905,0.39039397,0.14625609,0.10415531,inf,inf,inf,inf,1,1,1,1,3,1,3,2,5,1,1,1,0
538656233,538654127,31044075,49.078753500000005,2.2543773,-1.1080468,-2.4743028,1.741052,-0.0069100135,-0.00015225113,0.25713933,-0.035321184,-0.00895202,-0.042034194,-0.08882224,-0.036898524,0.010050106,0.041895274,-1.324205,3.8136642,-2.1859584,-0.52611816,-0.112117834,99.7061,0.1,0.3604326,0.38693827,0.13755119,0.10164238,inf,inf,inf,inf,1,1,1,1,3,1,3,2,5,1,1,1,0
538665394,538664086,31044075,49.078753500000005,2.2543773,-1.107811,-2.4742098,1.7402647,-0.0069100135,-0.00015225113,0.25713933,-0.033762526,-0.03051567,-0.020299038,-0.06706565,-0.036898524,0.010050106,0.041895274,1.5162311,-5.076269,1.9905138,-0.5260797,-0.112117834,99.7061,0.1,0.3611826,0.38758075,0.13797064,0.10182516,inf,inf,inf,inf,1,1,1,1,3,1,3,2,5,1,1,1,0
538675372,538674046,31044075,49.078753500000005,2.2543773,-1.1075622,-2.4742131,1.7394719,-0.0069100135,-0.00015225113,0.25713933,-0.029700935,-0.025705414,-0.03445642,-0.081183575,-0.036898524,0.010050106,0.041895274,1.6950282,-1.9134544,0.8722687,-0.5259264,-0.112117834,99.7061,0.1,0.36193725,0.3882253,0.13839641,0.1020086,inf,inf,inf,inf,1,1,1,1,3,1,3,2,5,1,1,1,0
538685295,538684005,31044075,49.078753500000005,2.2543773,-1.1073124,-2.4741092,1.7385788,-0.0069100135,-0.00015225113,0.25713933,-0.042063523,-0.010232673,-0.044456642,-0.09112714,-0.036898524,0.010050106,0.041895274,-2.4482906,-1.2318265,1.122621,-0.52618486,-0.112117834,99.7061,0.1,0.3626966,0.38887197,0.13883054,0.10219211,inf,inf,inf,inf,1,1,1,1,3,1,3,2,5,1,1,1,0
538695373,538693970,31044075,49.078753500000005,2.2543773,-1.1071328,-2.4740913,1.737919,-0.0069100135,-0.00015225113,0.25713933,-0.036441922,-0.017144123,-0.023854379,-0.07035691,-0.036898524,0.010050106,0.041895274,0.08765889,1.5494074,1.4423803,-0.5264239,-0.112117834,99.7061,0.10123873,0.36346063,0.38713065,0.1392556,0.102122575,inf,inf,inf,inf,1,1,1,1,3,1,3,2,5,1,1,1,0
538705243,538703955,31044075,49.078753500000005,2.2543773,-1.1069055,-2.4740725,1.7373189,-0.0069100135,-0.00015225113,0.25713933,-0.024663487,-0.0055739107,-0.03881365,-0.085136615,-0.036898524,0.010050106,0.041895274,1.664025,4.1688886,-2.8704135,-0.52622443,-0.112117834,99.7061,0.10183883,0.36422938,0.38777757,0.13969915,0.10230517,inf,inf,inf,inf,1,1,1,1,3,1,3,2,5,1,1,1,0
538715245,538713962,31044075,49.078753500000005,2.2543773,-1.106687,-2.4740007,1.736685,-0.0069100135,-0.00015225113,0.25713933,-0.036909867,-0.009987755,-0.03345419,-0.079586744,-0.036898524,0.010050106,0.041895274,-1.1600912,1.9398097,-0.9287158,-0.52608454,-0.112117834,99.7061,0.10247266,0.36500284,0.3884266,0.1402026,0.10248807,inf,inf,inf,inf,1,1,1,1,3,1,3,2,5,1,1,1,0
538725281,538723969,31044075,49.078753500000005,2.2543773,-1.1065112,-2.473968,1.7361141,-0.0069100135,-0.00015225113,0.25713933,-0.038274817,-0.031994082,-0.024579877,-0.07051159,-0.036898524,0.010050106,0.041895274,-1.8009621,-3.5754268,0.13509466,-0.526158,-0.112117834,99.7061,0.103043556,0.36578134,0.38907775,0.14060105,0.10267316,inf,inf,inf,inf,1,1,1,1,3,1,3,2,5,1,1,1,0
538735316,538733976,31044075,49.078753500000005,2.2543773,-1.1063336,-2.4739637,1.735636,-0.0069100135,-0.00015225113,0.25713933,-0.0206473,-0.03529527,-0.0005956619,-0.04631678,-0.036898524,0.010050106,0.041895274,2.5655599,-5.8083572,5.0208983,-0.52625775,-0.112117834,99.7061,0.103521705,0.36656445,0.38973105,0.14108808,0.10285523,inf,inf,inf,inf,1,1,1,1,3,1,3,2,5,1,1,1,0
538745527,538743983,31044075,49.078753500000005,2.2543773,-1.1061311,-2.4739215,1.7349998,-0.0069100135,-0.00015225113,0.25713933,-0.020375941,-0.01715749,-0.011660708,-0.057351224,-0.036898524,0.010050106,0.041895274,2.9248242,-2.3913126,3.523928,-0.5265027,-0.112117834,99.7061,0.104157925,0.36735252,0.38798052,0.14153703,0.10278092,inf,inf,inf,inf,1,1,1,1,3,1,3,2,5,1,1,1,0
538755326,538753991,31044075,49.078753500000005,2.2543773,-1.1059959,-2.4739048,1.7344309,-0.0069100135,-0.00015225113,0.25713933,-0.040767837,-0.011576401,-0.022385232,-0.06802812,-0.036898524,0.010050106,0.041895274,-0.998819,2.191644,-2.9556198,-0.5267311,-0.112117834,99.7061,0.10472679,0.3681454,0.38863403,0.14202723,0.102964625,inf,inf,inf,inf,1,1,1,1,3,1,3,2,5,1,1,1,0
538765555,538763998,31044075,49.078753500000005,2.2543773,-1.1058451,-2.4739172,1.7337916,-0.0069100135,-0.00015225113,0.25713933,-0.03274679,-0.010597282,-0.033431,-0.07900938,-0.036898524,0.010050106,0.041895274,-1.8771656,4.288266,-3.9264557,-0.52669615,-0.112117834,99.7061,0.10536611,0.3689433,0.38928965,0.14250691,0.10314817,inf,inf,inf,inf,1,1,1,1,3,1,3,2,5,1,1,1,0
538775309,538774005,31044075,49.078753500000005,2.2543773,-1.1057593,-2.4738338,1.7331607,-0.0069100135,-0.00015225113,0.25713933,-0.03489325,-0.017452164,-0.014510471,-0.06000891,-0.036898524,0.010050106,0.041895274,0.38545728,-1.7007785,0.9528468,-0.5267526,-0.112117834,99.7061,0.10599697,0.36974612,0.38994738,0.1428782,0.10333295,inf,inf,inf,inf,1,1,1,1,3,1,3,2,5,1,1,1,0
538785373,538784012,31044075,49.078753500000005,2.2543773,-1.1056865,-2.4738374,1.7327039,-0.0069100135,-0.00015225113,0.25713933,-0.02959977,-0.029780712,0.0066241664,-0.03877945,-0.036898524,0.010050106,0.041895274,1.8011383,-2.7864995,2.9474988,-0.52669924,-0.112117834,99.7061,0.10645378,0.37055358,0.39060733,0.14338234,0.10351639,inf,inf,inf,inf,1,1,1,1,3,1,3,2,5,1,1,1,0
538795169,538794020,31044075,49.078753500000005,2.2543773,-1.1055796,-2.4737937,1.7322881,-0.0069100135,-0.00015225113,0.25713933,-0.033061452,-0.0063675074,-0.009570764,-0.054865442,-0.036898524,0.010050106,0.041895274,-0.6434365,0.9263201,-0.74043375,-0.5268131,-0.112117834,99.7061,0.10686958,0.3713661,0.3912694,0.14387472,0.10369968,inf,inf,inf,inf,1,1,1,1,3,1,3,2,5,1,1,1,0
538805585,538804027,31044075,49.078753500000005,2.2543773,-1.1055635,-2.4736762,1.731673,-0.0069100135,-0.00015225113,0.25713933,-0.038475264,-0.009282903,-0.005644322,-0.050940234,-0.036898524,0.010050106,0.041895274,0.4874176,-0.55542433,2.4565682,-0.5272259,-0.112117834,99.7061,0.1074847,0.37218365,0.3894991,0.14425543,0.103619404,inf,inf,inf,inf,1,1,1,1,3,1,3,2,5,1,1,1,0
538815276,538814034,31044075,49.078753500000005,2.2543773,-1.1055949,-2.47364,1.7311871,-0.0069100135,-0.00015225113,0.25713933,-0.029772786,-0.014463209,0.0018050454,-0.0434738,-0.036898524,0.010050106,0.041895274,3.9887934,0.8729333,0.5987363,-0.52730334,-0.112117834,99.7061,0.107970595,0.3730059,0.39016137,0.14476922,0.10380257,inf,inf,inf,inf,1,1,1,1,3,1,3,2,5,1,1,1,0
538825281,538824042,31044075,49.078753500000005,2.2543773,-1.1055703,-2.4735858,1.7307316,-0.0069100135,-0.00015225113,0.25713933,-0.038899284,0.0013459432,-0.0049327016,-0.0501769,-0.036898524,0.010050106,0.041895274,-0.59679127,4.378305,-1.2472571,-0.5273355,-0.112117834,99.7061,0.108426094,0.37383327,0.39082575,0.14521077,0.103987135,inf,inf,inf,inf,1,1,1,1,3,1,3,2,5,1,1,1,0
538835379,538834049,31044075,49.078753500000005,2.2543773,-1.1055889,-2.4734821,1.7302946,-0.0069100135,-0.00015225113,0.25713933,-0.043546554,-0.018381268,-0.0009719652,-0.046164777,-0.036898524,0.010050106,0.041895274,-1.7084388,-2.0987759,-0.8190741,-0.52760106,-0.112117834,99.7061,0.108863115,0.3746656,0.39149228,0.14563942,0.10417253,inf,inf,inf,inf,1,1,1,1,3,1,3,2,5,1,1,1,0
538847432,538844056,31044075,49.078753500000005,2.2543773,-1.1053971,-2.4735572,1.7296585,-0.0069100135,-0.00015225113,0.25713933,-0.030923542,-0.026926432,0.009051535,-0.03629483,-0.036898524,0.010050106,0.041895274,-0.6410086,-5.0938907,2.8103526,-0.5280244,-0.112117834,99.7061,0.109499216,0.35904974,0.3880133,0.1369509,0.10165859,inf,inf,inf,inf,1,1,1,1,3,1,3,2,5,1,1,1,0
538855716,538854064,31044075,49.078753500000005,2.2543773,-1.1052043,-2.4736295,1.7290165,-0.0069100135,-0.00015225113,0.25713933,-0.028596278,-0.01769231,-0.0058643855,-0.051321253,-0.036898524,0.010050106,0.041895274,0.74146056,-3.3287392,1.372295,-0.5286618,-0.112117834,99.7061,0.11014116,0.35979578,0.38628244,0.13744096,0.10159128,inf,inf,inf,inf,1,1,1,1,3,1,3,2,5,1,1,1,0
538865358,538864071,31044075,49.078753500000005,2.2543773,-1.1049931,-2.4737504,1.7283459,-0.0069100135,-0.00015225113,0.25713933,-0.032303397,-0.0057598324,-0.018200066,-0.06374439,-0.036898524,0.010050106,0.041895274,-1.4727935,3.3081386,-1.9064347,-0.52906907,-0.112117834,99.7061,0.11081183,0.36054662,0.38692406,0.13793173,0.101774186,inf,inf,inf,inf,1,1,1,1,3,1,3,2,5,1,1,1,0
538875393,538874077,31044075,49.078753500000005,2.2543773,-1.1047171,-2.4738913,1.7276326,-0.0069100135,-0.00015225113,0.25713933,-0.018076206,-0.0043262565,-0.028424963,-0.07403465,-0.036898524,0.010050106,0.041895274,-0.89163786,6.020342,-3.8037655,-0.5293688,-0.112117834,99.7061,0.11152506,0.36130223,0.3875678,0.13842417,0.10195678,inf,inf,inf,inf,1,1,1,1,3,1,3,2,5,1,1,1,0
538885362,538884085,31044075,49.078753500000005,2.2543773,-1.1044114,-2.4739804,1.7269431,-0.0069100135,-0.00015225113,0.25713933,-0.01085116,-0.016207816,-0.013336883,-0.05899073,-0.036898524,0.010050106,0.041895274,0.9228822,0.5826056,-0.49935138,-0.52976525,-0.112117834,99.7061,0.112214565,0.36206263,0.38821366,0.13881272,0.10214006,inf,inf,inf,inf,1,1,1,1,3,1,3,2,5,1,1,1,0
538895380,538894092,31044075,49.078753500000005,2.2543773,-1.1041021,-2.474148,1.7262405,-0.0069100135,-0.00015225113,0.25713933,-0.0035061557,-0.02597437,-0.020886097,-0.06656377,-0.036898524,0.010050106,0.041895274,3.1696422,-0.3588417,0.062805556,-0.5301179,-0.112117834,99.7061,0.112917185,0.36282763,0.3888616,0.13919413,0.10232356,inf,inf,inf,inf,1,1,1,1,3,1,3,2,5,1,1,1,0
538905768,538904099,31044075,49.078753500000005,2.2543773,-1.1037177,-2.4742587,1.7256069,-0.0069100135,-0.00015225113,0.25713933,-0.013645756,-0.01394183,-0.021248005,-0.06685919,-0.036898524,0.010050106,0.041895274,-2.7205362,0.025688339,0.013761739,-0.5306548,-0.112117834,99.7061,0.11355078,0.36359712,0.38712174,0.13971187,0.10225189,inf,inf,inf,inf,1,1,1,1,3,1,3,2,5,1,1,1,0
538915627,538914316,31044075,49.078753500000005,2.2543773,-1.1033713,-2.474399,1.724998,-0.0069100135,-0.00015225113,0.25713933,-0.010649285,-0.02850364,-0.019640947,-0.0651702,-0.036898524,0.010050106,0.041895274,-1.8012084,-1.9846951,-0.0017788257,-0.53125775,-0.112117834,99.7061,0.1141597,0.3643715,0.38776994,0.14015801,0.102435306,inf,inf,inf,inf,1,1,1,1,3,1,3,2,5,1,1,1,0
538926297,538924269,31044075,49.078753500000005,2.2543773,-1.1030183,-2.4745626,1.7244146,-0.0069100135,-0.00015225113,0.25713933,0.004036915,-0.020060102,-0.01945656,-0.06488917,-0.036898524,0.010050106,0.041895274,2.2289548,0.31396186,-0.017708544,-0.53136176,-0.112117834,99.7061,0.11474311,0.3651507,0.38842022,0.14059249,0.10261858,inf,inf,inf,inf,1,1,1,1,3,1,3,2,5,1,1,1,0
538936296,538934235,31044075,49.078753500000005,2.2543773,-1.1026264,-2.4746935,1.7238119,-0.0069100135,-0.00015225113,0.25713933,0.0036790085,-0.017374193,-0.018955784,-0.064277634,-0.036898524,0.010050106,0.041895274,1.5083053,0.8171283,1.4707752,-0.53138906,-0.112117834,99.7061,0.115345836,0.36593458,0.3890727,0.14108145,0.10280121,inf,inf,inf,inf,1,1,1,1,3,1,3,2,5,1,1,1,0
538945481,538944189,31044075,49.078753500000005,2.2543773,-1.1022552,-2.4748218,1.7233357,-0.0069100135,-0.00015225113,0.25713933,-0.0029507414,-0.023709735,-0.010696341,-0.05589402,-0.036898524,0.010050106,0.041895274,-0.25633603,-0.86575353,-0.58338904,-0.531307,-0.112117834,99.7061,0.11582196,0.36672336,0.38972723,0.14153072,0.10298573,inf,inf,inf,inf,1,1,1,1,3,1,3,2,5,1,1,1,0
538955439,538954150,31044075,49.078753500000005,2.2543773,-1.1018336,-2.4749613,1.7227635,-0.0069100135,-0.00015225113,0.25713933,0.0071992446,-0.018663457,-0.02992127,-0.0749821,-0.036898524,0.010050106,0.041895274,-0.46680602,0.35600373,-1.0640209,-0.5314708,-0.112117834,99.7061,0.11639416,0.3675169,0.39038393,0.14195986,0.10316934,inf,inf,inf,inf,1,1,1,1,3,1,3,2,5,1,1,1,0
538966171,538964143,31044075,49.078753500000005,2.2543773,-1.1014841,-2.4750009,1.7223198,-0.0069100135,-0.00015225113,0.25713933,-0.0014715993,-0.013218843,-0.0149744665,-0.059731994,-0.036898524,0.010050106,0.041895274,0.38550156,-1.6536149,3.0470686,-0.53179955,-0.112117834,99.7061,0.11683786,0.36831525,0.38862473,0.14248164,0.103092015,inf,inf,inf,inf,1,1,1,1,3,1,3,2,5,1,1,1,0
538976047,538974150,31044075,49.078753500000005,2.2543773,-1.1011187,-2.4751296,1.7219574,-0.0069100135,-0.00015225113,0.25713933,0.0059577376,-0.0106292665,-0.029128578,-0.07357809,-0.036898524,0.010050106,0.041895274,0.6075939,3.35324,-2.710087,-0.53183967,-0.112117834,99.7061,0.117200255,0.36911857,0.38928163,0.14299652,0.10327509,inf,inf,inf,inf,1,1,1,1,3,1,3,2,5,1,1,1,0
538986139,538984157,31044075,49.078753500000005,2.2543773,-1.1007159,-2.475216,1.7216192,-0.0069100135,-0.00015225113,0.25713933,-0.0030772206,-0.00048436754,-0.01910365,-0.06324083,-0.036898524,0.010050106,0.041895274,-3.3930736,5.2390523,-1.9210075,-0.53165483,-0.112117834,99.7061,0.11753845,0.369927,0.38994065,0.1435043,0.10345843,inf,inf,inf,inf,1,1,1,1,3,1,3,2,5,1,1,1,0
538995997,538994164,31044075,49.078753500000005,2.2543773,-1.100354,-2.4752712,1.7213455,-0.0069100135,-0.00015225113,0.25713933,0.0035735837,-0.021783663,-0.013109985,-0.056930676,-0.036898524,0.010050106,0.041895274,-1.0987291,-1.2709295,-1.5087099,-0.5316533,-0.112117834,99.7061,0.11781216,0.37074047,0.3906018,0.14392108,0.10364268,inf,inf,inf,inf,1,1,1,1,3,1,3,2,5,1,1,1,0
539006155,539004172,31044075,49.078753500000005,2.2543773,-1.1000183,-2.4753242,1.7210096,-0.0069100135,-0.00015225113,0.25713933,0.010594831,-0.02456898,-0.014995631,-0.05849593,-0.036898524,0.010050106,0.041895274,2.3943346,-4.279291,1.305574,-0.5317558,-0.112117834,99.7061,0.11814809,0.37155864,0.39126512,0.1444217,0.10382696,inf,inf,inf,inf,1,1,1,1,3,1,3,2,5,1,1,1,0
539016217,539014179,31044075,49.078753500000005,2.2543773,-1.0996969,-2.4753451,1.7204708,-0.0069100135,-0.00015225113,0.25713933,0.003550674,-0.011097754,-0.022226108,-0.06552323,-0.036898524,0.010050106,0.041895274,1.0783083,-1.8332827,2.5554426,-0.53193456,-0.112117834,99.7061,0.118686914,0.37238193,0.38949618,0.14489953,0.103745356,inf,inf,inf,inf,1,1,1,1,3,1,3,2,5,1,1,1,0
539026268,539024186,31044075,49.078753500000005,2.2543773,-1.0994433,-2.4754133,1.7201068,-0.0069100135,-0.00015225113,0.25713933,-0.0081317015,-0.003496037,-0.012076988,-0.05516187,-0.036898524,0.010050106,0.041895274,-0.90013313,3.67119,-1.711288,-0.5319007,-0.112117834,99.7061,0.11905086,0.37321016,0.39015967,0.1453772,0.1039302,inf,inf,inf,inf,1,1,1,1,3,1,3,2,5,1,1,1,0
539036083,539034193,31044075,49.078753500000005,2.2543773,-1.0991199,-2.475497,1.7197565,-0.0069100135,-0.00015225113,0.25713933,0.0019296949,-0.007697456,-0.025012357,-0.06787701,-0.036898524,0.010050106,0.041895274,-2.203209,3.767366,-4.7133307,-0.53159547,-0.112117834,99.7061,0.11940122,0.3740434,0.3908253,0.14585373,0.10411357,inf,inf,inf,inf,1,1,1,1,3,1,3,2,5,1,1,1,0
539046218,539044200,31044075,49.078753500000005,2.2543773,-1.0988196,-2.4754822,1.7193555,-0.0069100135,-0.00015225113,0.25713933,-0.0011842098,-0.014154351,-0.007086577,-0.04972339,-0.036898524,0.010050106,0.041895274,-1.5216141,-2.4836435,1.8336936,-0.5314701,-0.112117834,99.7061,0.11980224,0.37488165,0.39149314,0.14633067,0.10429763,inf,inf,inf,inf,1,1,1,1,3,1,3,2,5,1,1,1,0
539057362,539054210,31044075,49.078753500000005,2.2543773,-1.0988796,-2.47544,1.7189525,-0.0069100135,-0.00015225113,0.25713933,0.009324692,-0.022147547,-0.0072255814,-0.04969083,-0.036898524,0.010050106,0.041895274,3.1873572,-4.713814,1.5404385,-0.53137386,-0.112117834,99.7061,0.120205164,0.35911313,0.3880002,0.13758042,0.101775035,inf,inf,inf,inf,1,1,1,1,3,1,3,2,5,1,1,1,0
539066576,539064215,31044075,49.078753500000005,2.2543773,-1.0988781,-2.4753747,1.7182596,-0.0069100135,-0.00015225113,0.25713933,-0.00029751484,0.00160612,-0.011480015,-0.05402544,-0.036898524,0.010050106,0.041895274,-1.1818413,0.694168,2.0117042,-0.5313517,-0.112117834,99.7061,0.12089813,0.35986403,0.3862707,0.13811317,0.101707764,inf,inf,inf,inf,1,1,1,1,3,1,3,2,5,1,1,1,0
539076274,539074222,31044075,49.078753500000005,2.2543773,-1.0989151,-2.4752948,1.7177335,-0.0069100135,-0.00015225113,0.25713933,-0.0064982423,0.004500264,-0.000185343,-0.04279024,-0.036898524,0.010050106,0.041895274,-2.4448795,3.2695196,-0.8561831,-0.53146785,-0.112117834,99.7061,0.1214242,0.36061984,0.3869135,0.13852918,0.1018904,inf,inf,inf,inf,1,1,1,1,3,1,3,2,5,1,1,1,0
539086422,539084230,31044075,49.078753500000005,2.2543773,-1.0988837,-2.4752276,1.7172818,-0.0069100135,-0.00015225113,0.25713933,0.006506154,0.010047145,-0.009056463,-0.05170115,-0.036898524,0.010050106,0.041895274,-1.9284991,5.865338,-4.6517987,-0.5313963,-0.112117834,99.7061,0.12187588,0.36138022,0.3875584,0.13904914,0.10207305,inf,inf,inf,inf,1,1,1,1,3,1,3,2,5,1,1,1,0
539096169,539094237,31044075,49.078753500000005,2.2543773,-1.0988666,-2.475046,1.7168009,-0.0069100135,-0.00015225113,0.25713933,0.008495973,0.0011046316,0.006402743,-0.036262766,-0.036898524,0.010050106,0.041895274,0.40002224,-0.6667676,0.87500596,-0.5313583,-0.112117834,99.7061,0.12235677,0.36214548,0.3882054,0.13948618,0.10225561,inf,inf,inf,inf,1,1,1,1,3,1,3,2,5,1,1,1,0
539106412,539104244,31044075,49.078753500000005,2.2543773,-1.0988683,-2.4749215,1.716364,-0.0069100135,-0.00015225113,0.25713933,0.010564724,-0.003357402,9.0802605e-05,-0.042577367,-0.036898524,0.010050106,0.041895274,1.8678514,-0.5860155,-0.61703795,-0.53107536,-0.112117834,99.7061,0.122793674,0.36291543,0.38885453,0.13993631,0.10243973,inf,inf,inf,inf,1,1,1,1,3,1,3,2,5,1,1,1,0
539115952,539114251,31044075,49.078753500000005,2.2543773,-1.0988692,-2.4747117,1.7159067,-0.0069100135,-0.00015225113,0.25713933,0.002327066,0.006015038,0.0036914046,-0.038962238,-0.036898524,0.010050106,0.041895274,-0.3857186,-1.8000233,1.3983,-0.5310781,-0.112117834,99.7061,0.12325096,0.36369008,0.38950577,0.14041743,0.10262292,inf,inf,inf,inf,1,1,1,1,3,1,3,2,5,1,1,1,0
539126375,539124258,31044075,49.078753500000005,2.2543773,-1.0988326,-2.474506,1.7156854,-0.0069100135,-0.00015225113,0.25713933,0.0056184507,0.0053647673,0.009399733,-0.033094347,-0.036898524,0.010050106,0.041895274,-1.6898087,-1.0338073,-0.10782077,-0.53134155,-0.112117834,99.7061,0.12347233,0.36446956,0.38775733,0.14091977,0.10254932,inf,inf,inf,inf,1,1,1,1,3,1,3,2,5,1,1,1,0
