timestamp,timestamp_sample,ref_timestamp,ref_lat,ref_lon,x,y,z,delta_xy[0],delta_xy[1],delta_z,vx,vy,vz,z_deriv,delta_vxy[0],delta_vxy[1],delta_vz,ax,ay,az,heading,delta_heading,ref_alt,dist_bottom,eph,epv,evh,evv,vxy_max,vz_max,hagl_min,hagl_max,xy_valid,z_valid,v_xy_valid,v_z_valid,xy_reset_counter,z_reset_counter,vxy_reset_counter,vz_reset_counter,heading_reset_counter,xy_global,z_global,dist_bottom_valid,dist_bottom_sensor_bitfield
71055994,71054979,29844784,49.0787067,2.2544098,1.8889747,-5.302142,1.81817,0.31469056,-0.42780074,0.009625912,-0.055416554,-0.14636981,0.040229812,0.0031123369,0.34569857,-0.461591,0.08920306,0.014190462,-0.06543785,0.01894493,-0.64846855,0.061135154,99.70599,0.10076523,0.4077184,0.39342564,0.14966458,0.101211265,inf,inf,inf,inf,1,1,1,1,3,8,3,9,3,1,1,1,0
71066252,71064934,29844784,49.0787067,2.2544098,1.8877423,-5.3026075,1.8180164,0.31469056,-0.42780074,0.009625912,-0.0552285,-0.14598191,0.04001093,0.002712152,0.34569857,-0.461591,0.08920306,-0.017283471,-0.06692212,0.005849539,-0.648458,0.061135154,99.70599,0.1,0.3922237,0.3900423,0.14061004,0.098900646,inf,inf,inf,inf,1,1,1,1,3,8,3,9,3,1,1,1,0
71075924,71074888,29844784,49.0787067,2.2544098,1.886543,-5.3031077,1.8178906,0.31469056,-0.42780074,0.009625912,-0.054982357,-0.14575034,0.03994038,0.0024921095,0.34569857,-0.461591,0.08920306,-0.010150158,-0.08329115,0.015588651,-0.64846313,0.061135154,99.70599,0.1,0.39296532,0.38826513,0.1410645,0.09881704,inf,inf,inf,inf,1,1,1,1,3,8,3,9,3,1,1,1,0
71085738,71084885,29844784,49.0787067,2.2544098,1.8853736,-5.303649,1.817785,0.31469056,-0.42780074,0.009625912,-0.05464675,-0.14540981,0.03977717,0.0022014477,0.34569857,-0.461591,0.08920306,0.0042953724,-0.06292851,0.0050502107,-0.6484468,0.061135154,99.70599,0.1,0.3937115,0.38889742,0.14151962,0.09898501,inf,inf,inf,inf,1,1,1,1,3,8,3,9,3,1,1,1,0
71096027,71094891,29844784,49.0787067,2.2544098,1.884235,-5.304226,1.8176968,0.31469056,-0.42780074,0.009625912,-0.054430176,-0.14520317,0.03975398,0.0020707913,0.34569857,-0.461591,0.08920306,-0.012065917,-0.07680912,0.011265089,-0.64842594,0.061135154,99.70599,0.1,0.39446223,0.38953152,0.14197554,0.099152684,inf,inf,inf,inf,1,1,1,1,3,8,3,9,3,1,1,1,0
71105739,71104902,29844784,49.0787067,2.2544098,1.8831265,-5.3048377,1.8176262,0.31469056,-0.42780074,0.009625912,-0.05405152,-0.14509436,0.039653532,0.0018831927,0.34569857,-0.461591,0.08920306,0.008660203,-0.08424094,0.009964523,-0.64841086,0.061135154,99.70599,0.1,0.3952176,0.39016768,0.14243197,0.09932074,inf,inf,inf,inf,1,1,1,1,3,8,3,9,3,1,1,1,0
71116037,71114902,29844784,49.0787067,2.2544098,1.882048,-5.3054805,1.8175725,0.31469056,-0.42780074,0.009625912,-0.053790532,-0.14487138,0.039603096,0.0017652144,0.34569857,-0.461591,0.08920306,0.001027443,-0.068317175,0.01075847,-0.6484021,0.061135154,99.70599,0.1,0.3959776,0.39080566,0.1428888,0.0994885,inf,inf,inf,inf,1,1,1,1,3,8,3,9,3,1,1,1,0
71131015,71129647,29844784,49.0787067,2.2544098,1.8807431,-5.3068476,1.8177251,0.31469056,-0.42780074,0.009625912,-0.053288005,-0.14520589,0.039779585,0.0018928064,0.34569857,-0.461591,0.08920306,0.04883652,-0.09535024,0.029285476,-0.64839303,0.061135154,99.70599,0.1,0.39674217,0.39144573,0.14334689,0.09965665,inf,inf,inf,inf,1,1,1,1,3,8,3,9,3,1,1,1,0
71141214,71139603,29844784,49.0787067,2.2544098,1.8797221,-5.3075514,1.817673,0.31469056,-0.42780074,0.009625912,-0.053235408,-0.14429113,0.0393882,0.0014391138,0.34569857,-0.461591,0.08920306,0.038758107,0.15005563,-0.070908055,-0.6483627,0.061135154,99.70599,0.1,0.3975114,0.38965026,0.14380565,0.09956731,inf,inf,inf,inf,1,1,1,1,3,8,3,9,3,1,1,1,0
71150857,71149559,29844784,49.0787067,2.2544098,1.8787282,-5.3082848,1.8176358,0.31469056,-0.42780074,0.009625912,-0.053785097,-0.14464317,0.039421648,0.0014287276,0.34569857,-0.461591,0.08920306,-0.25807425,0.05712099,-0.011209189,-0.64834243,0.061135154,99.70599,0.1,0.39828533,0.39029023,0.14426498,0.09973561,inf,inf,inf,inf,1,1,1,1,3,8,3,9,3,1,1,1,0
71160790,71159516,29844784,49.0787067,2.2544098,1.8777549,-5.309051,1.8176156,0.31469056,-0.42780074,0.009625912,-0.0529859,-0.14420928,0.039882984,0.00186391,0.34569857,-0.461591,0.08920306,0.001673168,0.22099477,0.11035467,-0.6484024,0.061135154,99.70599,0.1,0.39906394,0.39093217,0.14472501,0.09990395,inf,inf,inf,inf,1,1,1,1,3,8,3,9,3,1,1,1,0
71170763,71169475,29844784,49.0787067,2.2544098,1.8768095,-5.30984,1.8176063,0.31469056,-0.42780074,0.009625912,-0.05219236,-0.14381431,0.038970537,0.0009402424,0.34569857,-0.461591,0.08920306,0.09085226,0.11840965,0.008194461,-0.6483598,0.061135154,99.70599,0.1,0.39984724,0.3915759,0.14518566,0.10007199,inf,inf,inf,inf,1,1,1,1,3,8,3,9,3,1,1,1,0
71181057,71179437,29844784,49.0787067,2.2544098,1.8758866,-5.3106556,1.8176126,0.31469056,-0.42780074,0.009625912,-0.052342627,-0.1442713,0.039042294,0.0010170664,0.34569857,-0.461591,0.08920306,0.059424005,-0.07383075,-0.06275547,-0.6482293,0.061135154,99.70599,0.1,0.40063527,0.39222178,0.14564747,0.10024043,inf,inf,inf,inf,1,1,1,1,3,8,3,9,3,1,1,1,0
71191035,71189385,29844784,49.0787067,2.2544098,1.8749759,-5.3114986,1.8176407,0.31469056,-0.42780074,0.009625912,-0.052487068,-0.14503306,0.039164964,0.0011689286,0.34569857,-0.461591,0.08920306,0.35367596,-0.27742413,0.02495199,-0.64824533,0.061135154,99.70599,0.1,0.40142804,0.39041755,0.14610934,0.1001472,inf,inf,inf,inf,1,1,1,1,3,8,3,9,3,1,1,1,0
71200710,71199350,29844784,49.0787067,2.2544098,1.8740829,-5.3123775,1.8176794,0.31469056,-0.42780074,0.009625912,-0.054958966,-0.14522982,0.038699247,0.00074699486,0.34569857,-0.461591,0.08920306,-0.36924312,-0.18723607,0.05549915,-0.64845,0.061135154,99.70599,0.1,0.40222558,0.39106327,0.146574,0.100315794,inf,inf,inf,inf,1,1,1,1,3,8,3,9,3,1,1,1,0
71210713,71209296,29844784,49.0787067,2.2544098,1.8732173,-5.313277,1.8177308,0.31469056,-0.42780074,0.009625912,-0.05194417,-0.1443409,0.038425613,0.00053082575,0.34569857,-0.461591,0.08920306,-0.030881666,-0.053113937,-0.06831132,-0.6486013,0.061135154,99.70599,0.1,0.40302792,0.39171082,0.14703906,0.10048407,inf,inf,inf,inf,1,1,1,1,3,8,3,9,3,1,1,1,0
71220657,71219253,29844784,49.0787067,2.2544098,1.8724272,-5.3142753,1.8178269,0.31469056,-0.42780074,0.009625912,-0.039265208,-0.15822206,0.042660754,0.0048367693,0.34569857,-0.461591,0.08920306,1.7396265,-1.301206,-0.0712517,-0.64757425,0.061135154,99.70599,0.1,0.40383506,0.3923605,0.1475055,0.100652754,inf,inf,inf,inf,1,1,1,1,3,8,3,9,3,1,1,1,0
71230626,71229218,29844784,49.0787067,2.2544098,1.871675,-5.3152704,1.8178884,0.31469056,-0.42780074,0.009625912,-0.04174189,-0.14669758,0.038820848,0.0010790328,0.34569857,-0.461591,0.08920306,1.4068668,-0.3954207,1.0705366,-0.64688694,0.061135154,99.70599,0.1,0.40464702,0.393012,0.14797194,0.10082111,inf,inf,inf,inf,1,1,1,1,3,8,3,9,3,1,1,1,0
71240842,71239165,29844784,49.0787067,2.2544098,1.8709338,-5.3162804,1.8179414,0.31469056,-0.42780074,0.009625912,-0.042652365,-0.14556754,0.041952644,0.00426639,0.34569857,-0.461591,0.08920306,0.96548504,1.1422862,0.52695227,-0.64705807,0.061135154,99.70599,0.1,0.4054638,0.39119893,0.14861558,0.10072589,inf,inf,inf,inf,1,1,1,1,3,8,3,9,3,1,1,1,0
71251413,71249121,29844784,49.0787067,2.2544098,1.8696553,-5.3164935,1.817813,0.31469056,-0.42780074,0.009625912,-0.05398653,-0.14685696,0.039934766,0.0020855158,0.34569857,-0.461591,0.08920306,-0.50719684,-0.1776421,-0.87649715,-0.6478199,0.061135154,99.70599,0.1,0.3904518,0.3879795,0.1399081,0.0984959,inf,inf,inf,inf,1,1,1,1,3,8,3,9,3,1,1,1,0
71260750,71259078,29844784,49.0787067,2.2544098,1.8683449,-5.3167486,1.8176748,0.31469056,-0.42780074,0.009625912,-0.061599325,-0.14503004,0.038288184,0.0002988083,0.34569857,-0.461591,0.08920306,-1.2663739,0.06775938,-0.3543714,-0.64834654,0.061135154,99.70599,0.1,0.39118525,0.38860855,0.14036123,0.09866378,inf,inf,inf,inf,1,1,1,1,3,8,3,9,3,1,1,1,0
71270437,71269034,29844784,49.0787067,2.2544098,1.8670549,-5.317025,1.8175457,0.31469056,-0.42780074,0.009625912,-0.060304675,-0.14719835,0.03690391,-0.0012049715,0.34569857,-0.461591,0.08920306,-1.1134458,-1.3105437,-0.55705166,-0.64813316,0.061135154,99.70599,0.1,0.3919232,0.38923934,0.14081386,0.0988312,inf,inf,inf,inf,1,1,1,1,3,8,3,9,3,1,1,1,0
71280376,71278990,29844784,49.0787067,2.2544098,1.8658565,-5.3173213,1.817396,0.31469056,-0.42780074,0.009625912,-0.06289022,-0.13463475,0.030193405,-0.0080138985,0.34569857,-0.461591,0.08920306,-4.163333,1.3218008,-1.1167754,-0.6476729,0.061135154,99.70599,0.1,0.3926657,0.38987225,0.14127229,0.09899906,inf,inf,inf,inf,1,1,1,1,3,8,3,9,3,1,1,1,0
71290348,71288946,29844784,49.0787067,2.2544098,1.8647007,-5.3176475,1.817258,0.31469056,-0.42780074,0.009625912,-0.05259588,-0.14283869,0.03141461,-0.0068724086,0.34569857,-0.461591,0.08920306,-1.789763,-0.35545313,-1.1963648,-0.6475725,0.061135154,99.70599,0.1,0.3934128,0.39050698,0.1417277,0.09916671,inf,inf,inf,inf,1,1,1,1,3,8,3,9,3,1,1,1,0
71300572,71298903,29844784,49.0787067,2.2544098,1.8635626,-5.318016,1.8172534,0.31469056,-0.42780074,0.009625912,-0.053948198,-0.13995782,0.041890442,0.003627491,0.34569857,-0.461591,0.08920306,-0.6732127,-0.23716176,0.7818452,-0.64788586,0.061135154,99.70599,0.1,0.39416444,0.38872388,0.14218326,0.099081725,inf,inf,inf,inf,1,1,1,1,3,8,3,9,3,1,1,1,0
71310464,71308858,29844784,49.0787067,2.2544098,1.8624064,-5.3184266,1.8172488,0.31469056,-0.42780074,0.009625912,-0.05483748,-0.1366929,0.036147892,-0.00207672,0.34569857,-0.461591,0.08920306,0.80207974,1.1231192,0.66024786,-0.64827347,0.061135154,99.70599,0.1,0.39492074,0.38935852,0.14264144,0.09924962,inf,inf,inf,inf,1,1,1,1,3,8,3,9,3,1,1,1,0
71320008,71318815,29844784,49.0787067,2.2544098,1.861286,-5.318886,1.8172804,0.31469056,-0.42780074,0.009625912,-0.05155536,-0.1435629,0.04128252,0.0031104428,0.34569857,-0.461591,0.08920306,1.3391414,-0.21560924,0.7353681,-0.64821213,0.061135154,99.70599,0.1,0.39568165,0.38999525,0.14310068,0.09941754,inf,inf,inf,inf,1,1,1,1,3,8,3,9,3,1,1,1,0
71330591,71328773,29844784,49.0787067,2.2544098,1.8602854,-5.319393,1.8173182,0.31469056,-0.42780074,0.009625912,-0.06606621,-0.13633604,0.0288169,-0.009289667,0.34569857,-0.461591,0.08920306,-6.467001,1.7320261,-2.252856,-0.647826,0.061135154,99.70599,0.1,0.39644718,0.39063376,0.14354858,0.099585764,inf,inf,inf,inf,1,1,1,1,3,8,3,9,3,1,1,1,0
71339860,71338754,29844784,49.0787067,2.2544098,1.8592801,-5.3199153,1.817342,0.31469056,-0.42780074,0.009625912,-0.059626434,-0.14697652,0.030911751,-0.0071162865,0.34569857,-0.461591,0.08920306,-4.720247,-1.7698132,-1.6715099,-0.64783514,0.061135154,99.70599,0.1,0.3972174,0.39127442,0.14402045,0.09975332,inf,inf,inf,inf,1,1,1,1,3,8,3,9,3,1,1,1,0
71350586,71348756,29844784,49.0787067,2.2544098,1.8582907,-5.3204904,1.8174675,0.31469056,-0.42780074,0.009625912,-0.05762121,-0.14394689,0.03819329,0.00031590005,0.34569857,-0.461591,0.08920306,-3.135688,-1.2527858,-0.4427941,-0.6481152,0.061135154,99.70599,0.10011315,0.39799228,0.38948265,0.14446792,0.0996639,inf,inf,inf,inf,1,1,1,1,3,8,3,9,3,1,1,1,0
71359885,71358750,29844784,49.0787067,2.2544098,1.8572977,-5.321111,1.8175801,0.31469056,-0.42780074,0.009625912,-0.055429623,-0.1416464,0.032715198,-0.0050023715,0.34569857,-0.461591,0.08920306,-1.1812004,0.26431128,-0.4854547,-0.64834774,0.061135154,99.70599,0.10039449,0.39877188,0.3901232,0.14493196,0.09983306,inf,inf,inf,inf,1,1,1,1,3,8,3,9,3,1,1,1,0
71370052,71368764,29844784,49.0787067,2.2544098,1.8563035,-5.321773,1.8177166,0.31469056,-0.42780074,0.009625912,-0.05418667,-0.14354502,0.03770144,0.00015241548,0.34569857,-0.461591,0.08920306,0.27927697,0.12269849,-0.0662652,-0.6484945,0.061135154,99.70599,0.100636125,0.39955622,0.3907657,0.14539647,0.10000181,inf,inf,inf,inf,1,1,1,1,3,8,3,9,3,1,1,1,0
71379842,71378558,29844784,49.0787067,2.2544098,1.8554071,-5.3224006,1.8178487,0.31469056,-0.42780074,0.009625912,-0.04581685,-0.14044638,0.03260505,-0.0047681527,0.34569857,-0.461591,0.08920306,0.22831513,-0.59472835,-0.94807994,-0.64841866,0.061135154,99.70599,0.10084617,0.4003453,0.39141,0.14586358,0.100170135,inf,inf,inf,inf,1,1,1,1,3,8,3,9,3,1,1,1,0
71389785,71388508,29844784,49.0787067,2.2544098,1.8545374,-5.3230853,1.8179704,0.31469056,-0.42780074,0.009625912,-0.048632488,-0.13918288,0.036251407,-0.0009380797,0.34569857,-0.461591,0.08920306,-0.4900767,0.29040384,0.68163574,-0.64837307,0.061135154,99.70599,0.10105145,0.40113914,0.39205647,0.14634925,0.100338034,inf,inf,inf,inf,1,1,1,1,3,8,3,9,3,1,1,1,0
71399881,71398464,29844784,49.0787067,2.2544098,1.8536676,-5.3238134,1.8181924,0.31469056,-0.42780074,0.009625912,-0.045452822,-0.13781084,0.036785483,-0.00015374638,0.34569857,-0.461591,0.08920306,0.85783756,1.3100381,-0.1595936,-0.6482889,0.061135154,99.70599,0.10258174,0.40193784,0.3902559,0.14681129,0.10024501,inf,inf,inf,inf,1,1,1,1,3,8,3,9,3,1,1,1,0
71409804,71408422,29844784,49.0787067,2.2544098,1.8528407,-5.3245564,1.8184031,0.31469056,-0.42780074,0.009625912,-0.052398793,-0.14364421,0.032486506,-0.004197991,0.34569857,-0.461591,0.08920306,-1.9036382,-0.9535863,-0.67896247,-0.64824235,0.061135154,99.70599,0.10273528,0.40274134,0.39090222,0.14723553,0.10041316,inf,inf,inf,inf,1,1,1,1,3,8,3,9,3,1,1,1,0
71419674,71418377,29844784,49.0787067,2.2544098,1.8520218,-5.3253503,1.8186373,0.31469056,-0.42780074,0.009625912,-0.05007788,-0.14074191,0.034163173,-0.0022650708,0.34569857,-0.461591,0.08920306,-1.441561,0.2966465,-1.3313198,-0.64816886,0.061135154,99.70599,0.1028291,0.40354952,0.39155036,0.14772086,0.10058148,inf,inf,inf,inf,1,1,1,1,3,8,3,9,3,1,1,1,0
71549138,71547807,29844784,49.0787067,2.2544098,1.8362162,-5.3339167,1.8218428,0.31469056,-0.42780074,0.009625912,-0.046750695,-0.14380404,0.02674289,-0.00599299,0.34569857,-0.461591,0.08920306,-1.2310508,1.4043376,-1.4086703,-0.6473329,0.061135154,99.70599,0.10433793,0.3976278,0.39104244,0.14435819,0.099805824,inf,inf,inf,inf,1,1,1,1,3,8,3,9,3,1,1,1,0
71559420,71557765,29844784,49.0787067,2.2544098,1.8351308,-5.334717,1.8220606,0.31469056,-0.42780074,0.009625912,-0.039660297,-0.1535467,0.03833886,0.0058956323,0.34569857,-0.461591,0.08920306,0.938329,-3.7287648,2.982903,-0.6471703,0.061135154,99.70599,0.104551554,0.39840665,0.38925526,0.1448277,0.099717215,inf,inf,inf,inf,1,1,1,1,3,8,3,9,3,1,1,1,0
71569081,71567720,29844784,49.0787067,2.2544098,1.8340952,-5.335558,1.822296,0.31469056,-0.42780074,0.009625912,-0.042290453,-0.13792922,0.02440507,-0.007744895,0.34569857,-0.461591,0.08920306,0.040333427,0.64887244,-0.6098239,-0.64705646,0.061135154,99.70599,0.104676366,0.39919022,0.3898958,0.14528011,0.09988512,inf,inf,inf,inf,1,1,1,1,3,8,3,9,3,1,1,1,0
71579028,71577676,29844784,49.0787067,2.2544098,1.8331125,-5.3364735,1.8225867,0.31469056,-0.42780074,0.009625912,-0.037645027,-0.14611042,0.031490497,-0.00036549685,0.34569857,-0.461591,0.08920306,0.16048314,1.7406238,-1.9375119,-0.646814,0.061135154,99.70599,0.10474646,0.39997852,0.39053848,0.14575513,0.10005376,inf,inf,inf,inf,1,1,1,1,3,8,3,9,3,1,1,1,0
71588955,71587637,29844784,49.0787067,2.2544098,1.8321517,-5.3373976,1.8228431,0.31469056,-0.42780074,0.009625912,-0.035629913,-0.16004823,0.04122709,0.009663381,0.34569857,-0.461591,0.08920306,1.4337515,-3.867632,3.1442277,-0.6467364,0.061135154,99.70599,0.104783654,0.40077162,0.39118296,0.14621602,0.10022162,inf,inf,inf,inf,1,1,1,1,3,8,3,9,3,1,1,1,0
71598902,71597601,29844784,49.0787067,2.2544098,1.831232,-5.338402,1.8231186,0.31469056,-0.42780074,0.009625912,-0.04514281,-0.1476013,0.023525188,-0.007745738,0.34569857,-0.461591,0.08920306,-1.8504647,0.71334916,-1.81914,-0.64664245,0.061135154,99.70599,0.104858994,0.4015695,0.39182958,0.14667751,0.100390695,inf,inf,inf,inf,1,1,1,1,3,8,3,9,3,1,1,1,0
71609166,71607619,29844784,49.0787067,2.2544098,1.8303457,-5.339487,1.8234183,0.31469056,-0.42780074,0.009625912,-0.037721988,-0.15606624,0.03092098,-5.815114e-05,0.34569857,-0.461591,0.08920306,-1.0374633,1.450383,-2.1657166,-0.64648664,0.061135154,99.70599,0.104875445,0.40237215,0.392478,0.14714566,0.10055899,inf,inf,inf,inf,1,1,1,1,3,8,3,9,3,1,1,1,0
71618905,71617612,29844784,49.0787067,2.2544098,1.8294342,-5.3405986,1.8239236,0.31469056,-0.42780074,0.009625912,-0.034296043,-0.16708864,0.04357734,0.013115706,0.34569857,-0.461591,0.08920306,2.6649725,-2.5829213,3.2321787,-0.6466659,0.061135154,99.70599,0.11029351,0.40317965,0.39067185,0.14757827,0.10046582,inf,inf,inf,inf,1,1,1,1,3,8,3,9,3,1,1,1,0
71629331,71627623,29844784,49.0787067,2.2544098,1.8285242,-5.341755,1.8244121,0.31469056,-0.42780074,0.009625912,-0.052016493,-0.15627672,0.02589458,-0.004059839,0.34569857,-0.461591,0.08920306,-1.5903349,0.19747992,-0.21491641,-0.6467924,0.061135154,99.70599,0.11019766,0.40399188,0.39132017,0.14806812,0.100633636,inf,inf,inf,inf,1,1,1,1,3,8,3,9,3,1,1,1,0
71638567,71637416,29844784,49.0787067,2.2544098,1.8276613,-5.3429174,1.8249521,0.31469056,-0.42780074,0.009625912,-0.045378435,-0.15844792,0.034221407,0.0047646323,0.34569857,-0.461591,0.08920306,-2.1299016,1.374608,-2.1111572,-0.6468751,0.061135154,99.70599,0.11002827,0.40480906,0.39197063,0.14853813,0.10080231,inf,inf,inf,inf,1,1,1,1,3,8,3,9,3,1,1,1,0
71649529,71647376,29844784,49.0787067,2.2544098,1.8263793,-5.3434706,1.8253992,0.31469056,-0.42780074,0.009625912,-0.031114904,-0.16228308,0.040781677,0.011745233,0.34569857,-0.461591,0.08920306,5.1085653,-0.77507913,2.062008,-0.6469012,0.061135154,99.70599,0.10829294,0.39035314,0.3890352,0.14047281,0.09875457,inf,inf,inf,inf,1,1,1,1,3,8,3,9,3,1,1,1,0
71658644,71657337,29844784,49.0787067,2.2544098,1.8251574,-5.3440537,1.8258473,0.31469056,-0.42780074,0.009625912,-0.054614473,-0.16280173,0.038479827,0.009856268,0.34569857,-0.461591,0.08920306,-1.6223671,-1.6085111,1.8245075,-0.6474267,0.061135154,99.70599,0.10810804,0.39109215,0.38966683,0.14092807,0.09892258,inf,inf,inf,inf,1,1,1,1,3,8,3,9,3,1,1,1,0
71668899,71667287,29844784,49.0787067,2.2544098,1.8240259,-5.3446364,1.8266077,0.31469056,-0.42780074,0.009625912,-0.045479797,-0.15169625,0.02496132,-0.0029410343,0.34569857,-0.461591,0.08920306,-3.5281525,0.09182145,-2.553885,-0.64737165,0.061135154,99.70599,0.11542523,0.39183575,0.3878962,0.14134483,0.09884036,inf,inf,inf,inf,1,1,1,1,3,8,3,9,3,1,1,1,0
71678532,71677244,29844784,49.0787067,2.2544098,1.8228849,-5.345251,1.8273816,0.31469056,-0.42780074,0.009625912,-0.034689724,-0.15212628,0.03982543,0.012624179,0.34569857,-0.461591,0.08920306,2.283273,0.8401094,-0.43021977,-0.64742583,0.061135154,99.70599,0.11499417,0.3925838,0.3885278,0.14184941,0.0990074,inf,inf,inf,inf,1,1,1,1,3,8,3,9,3,1,1,1,0
71688491,71687200,29844784,49.0787067,2.2544098,1.821775,-5.3458734,1.8280766,0.31469056,-0.42780074,0.009625912,-0.039252695,-0.15351823,0.041915275,0.015395919,0.34569857,-0.461591,0.08920306,1.9504821,-0.64715695,4.3030825,-0.647525,0.061135154,99.70599,0.11461663,0.39333656,0.38916153,0.14228271,0.09917565,inf,inf,inf,inf,1,1,1,1,3,8,3,9,3,1,1,1,0
71698490,71697157,29844784,49.0787067,2.2544098,1.8206886,-5.346536,1.8288232,0.31469056,-0.42780074,0.009625912,-0.058568053,-0.15325888,0.023959773,-0.001897326,0.34569857,-0.461591,0.08920306,-4.043303,-0.55199957,-3.3744655,-0.6477169,0.061135154,99.70599,0.11424947,0.39409393,0.38979703,0.14270683,0.09934411,inf,inf,inf,inf,1,1,1,1,3,8,3,9,3,1,1,1,0
71708505,71707113,29844784,49.0787067,2.2544098,1.8196492,-5.347199,1.8295493,0.31469056,-0.42780074,0.009625912,-0.04345494,-0.15041015,0.036150362,0.010937559,0.34569857,-0.461591,0.08920306,-2.2299128,-1.0310221,-1.1110308,-0.6478128,0.061135154,99.70599,0.11388576,0.39485586,0.39043465,0.14322607,0.099512324,inf,inf,inf,inf,1,1,1,1,3,8,3,9,3,1,1,1,0
71718400,71717071,29844784,49.0787067,2.2544098,1.8185519,-5.3479433,1.8302,0.31469056,-0.42780074,0.009625912,-0.03155196,-0.14071256,0.02957954,0.0049929162,0.34569857,-0.461591,0.08920306,6.210152,4.2767425,0.61340475,-0.6475717,0.061135154,99.70599,0.113532305,0.39562258,0.39107406,0.14366324,0.09968026,inf,inf,inf,inf,1,1,1,1,3,8,3,9,3,1,1,1,0
71728636,71727026,29844784,49.0787067,2.2544098,1.817523,-5.3487144,1.8311826,0.31469056,-0.42780074,0.009625912,-0.062786974,-0.16749981,0.034224667,0.010600089,0.34569857,-0.461591,0.08920306,-3.6107833,-3.0631962,1.6918396,-0.6480647,0.061135154,99.70599,0.121637106,0.39639398,0.3892851,0.14408022,0.09959259,inf,inf,inf,inf,1,1,1,1,3,8,3,9,3,1,1,1,0
71738307,71736980,29844784,49.0787067,2.2544098,1.8165277,-5.3495054,1.8321441,0.31469056,-0.42780074,0.009625912,-0.04942446,-0.15261948,0.014100045,-0.008593474,0.34569857,-0.461591,0.08920306,-3.0629094,-1.7430887,-3.824481,-0.64798146,0.061135154,99.70599,0.12109935,0.39716995,0.38992444,0.14460145,0.09976117,inf,inf,inf,inf,1,1,1,1,3,8,3,9,3,1,1,1,0
71748249,71746938,29844784,49.0787067,2.2544098,1.8155104,-5.350383,1.8330916,0.31469056,-0.42780074,0.009625912,-0.03694245,-0.14501086,0.04077297,0.018979074,0.34569857,-0.461591,0.08920306,3.784153,4.3396225,1.8001176,-0.6481092,0.061135154,99.70599,0.12049973,0.3979508,0.39056587,0.14502844,0.09992904,inf,inf,inf,inf,1,1,1,1,3,8,3,9,3,1,1,1,0
71758481,71756890,29844784,49.0787067,2.2544098,1.814515,-5.3512435,1.8340403,0.31469056,-0.42780074,0.009625912,-0.04398601,-0.15722485,0.031907506,0.010982284,0.34569857,-0.461591,0.08920306,3.1387866,-0.32644227,0.96351826,-0.64813673,0.061135154,99.70599,0.11995876,0.3987363,0.39120913,0.14547087,0.10009655,inf,inf,inf,inf,1,1,1,1,3,8,3,9,3,1,1,1,0
71768018,71766851,29844784,49.0787067,2.2544098,1.81359,-5.3521385,1.8349966,0.31469056,-0.42780074,0.009625912,-0.06245537,-0.16079932,0.033920616,0.0138350865,0.34569857,-0.461591,0.08920306,-5.063483,-2.503417,-0.31689912,-0.6484894,0.061135154,99.70599,0.11945188,0.3995265,0.3918545,0.1459351,0.10026636,inf,inf,inf,inf,1,1,1,1,3,8,3,9,3,1,1,1,0
71778609,71776806,29844784,49.0787067,2.2544098,1.8126974,-5.3530207,1.8362089,0.31469056,-0.42780074,0.009625912,-0.03771428,-0.14822178,0.03406639,0.015065527,0.34569857,-0.461591,0.08920306,-0.06689668,-0.68489164,-0.33599728,-0.6483729,0.061135154,99.70599,0.12532806,0.40032148,0.39005664,0.14645025,0.100173205,inf,inf,inf,inf,1,1,1,1,3,8,3,9,3,1,1,1,0
71787955,71786762,29844784,49.0787067,2.2544098,1.8118026,-5.353984,1.8374206,0.31469056,-0.42780074,0.009625912,-0.040912963,-0.13971029,0.036707383,0.01875195,0.34569857,-0.461591,0.08920306,2.4071794,5.3790383,-0.67583364,-0.64809704,0.061135154,99.70599,0.12450421,0.40112144,0.39070195,0.14686252,0.100340836,inf,inf,inf,inf,1,1,1,1,3,8,3,9,3,1,1,1,0
71798274,71796718,29844784,49.0787067,2.2544098,1.810955,-5.3549623,1.838605,0.31469056,-0.42780074,0.009625912,-0.043780327,-0.16314498,0.034040246,0.017092463,0.34569857,-0.461591,0.08920306,0.21181934,-1.2964587,-1.016587,-0.64791465,0.061135154,99.70599,0.12379551,0.40192604,0.39134902,0.14731818,0.100509435,inf,inf,inf,inf,1,1,1,1,3,8,3,9,3,1,1,1,0
71807833,71806675,29844784,49.0787067,2.2544098,1.8101385,-5.355931,1.8397533,0.31469056,-0.42780074,0.009625912,-0.0514413,-0.16402236,0.049998224,0.034021415,0.34569857,-0.461591,0.08920306,-2.9639974,-5.370021,3.8944485,-0.6480725,0.061135154,99.70599,0.1230402,0.40273547,0.39199823,0.14784515,0.10067975,inf,inf,inf,inf,1,1,1,1,3,8,3,9,3,1,1,1,0
71817936,71816630,29844784,49.0787067,2.2544098,1.8093246,-5.3569803,1.8409126,0.31469056,-0.42780074,0.009625912,-0.034386948,-0.14180492,0.028012322,0.01297105,0.34569857,-0.461591,0.08920306,1.8797032,3.468774,-2.6689787,-0.64781445,0.061135154,99.70599,0.122244954,0.4035499,0.39264944,0.14826997,0.10084705,inf,inf,inf,inf,1,1,1,1,3,8,3,9,3,1,1,1,0
71828146,71826585,29844784,49.0787067,2.2544098,1.8085381,-5.3580384,1.8420718,0.31469056,-0.42780074,0.009625912,-0.042877223,-0.14744636,0.040061492,0.025946997,0.34569857,-0.461591,0.08920306,0.8502218,3.5140898,-1.1265912,-0.64743435,0.061135154,99.70599,0.122106194,0.40436912,0.3908425,0.1487646,0.100749634,inf,inf,inf,inf,1,1,1,1,3,8,3,9,3,1,1,1,0
71837897,71836540,29844784,49.0787067,2.2544098,1.8078023,-5.3590813,1.8431969,0.31469056,-0.42780074,0.009625912,-0.03907592,-0.16447175,0.045763902,0.032541856,0.34569857,-0.461591,0.08920306,-0.25687855,-3.7886903,2.2740812,-0.6474563,0.061135154,99.70599,0.12136388,0.4051933,0.3914936,0.14920768,0.10092222,inf,inf,inf,inf,1,1,1,1,3,8,3,9,3,1,1,1,0
71847820,71846495,29844784,49.0787067,2.2544098,1.8070356,-5.3601484,1.8443332,0.31469056,-0.42780074,0.009625912,-0.042428974,-0.15815367,0.04997153,0.037608348,0.34569857,-0.461591,0.08920306,0.837175,-3.6862373,2.6458795,-0.6475223,0.061135154,99.70599,0.120521665,0.4060223,0.3921465,0.14975494,0.10108951,inf,inf,inf,inf,1,1,1,1,3,8,3,9,3,1,1,1,0
71858640,71856466,29844784,49.0787067,2.2544098,1.8056284,-5.3609557,1.8452824,0.31469056,-0.42780074,0.009625912,-0.04449013,-0.13552262,0.025069183,0.013396381,0.34569857,-0.461591,0.08920306,-0.8383305,4.8478184,-3.0855343,-0.64736867,0.061135154,99.70599,0.11663103,0.39075202,0.38880482,0.1406204,0.09878565,inf,inf,inf,inf,1,1,1,1,3,8,3,9,3,1,1,1,0
71867788,71866463,29844784,49.0787067,2.2544098,1.8042421,-5.361813,1.846295,0.31469056,-0.42780074,0.009625912,-0.04397829,-0.15102291,0.040540125,0.02953343,0.34569857,-0.461591,0.08920306,-0.05998869,3.1639972,-4.0082808,-0.6471195,0.061135154,99.70599,0.116045,0.39149377,0.38943648,0.1411061,0.098954804,inf,inf,inf,inf,1,1,1,1,3,8,3,9,3,1,1,1,0
71877811,71876465,29844784,49.0787067,2.2544098,1.8029437,-5.3626447,1.8472611,0.31469056,-0.42780074,0.009625912,-0.03477797,-0.16758949,0.064321585,0.053956866,0.34569857,-0.461591,0.08920306,0.5866148,-5.630425,5.864875,-0.64716876,0.061135154,99.70599,0.11545539,0.3922402,0.39007026,0.14155027,0.09912387,inf,inf,inf,inf,1,1,1,1,3,8,3,9,3,1,1,1,0
71888044,71886477,29844784,49.0787067,2.2544098,1.8016447,-5.363555,1.8483948,0.31469056,-0.42780074,0.009625912,-0.039936762,-0.15254015,0.045217484,0.035613965,0.34569857,-0.461591,0.08920306,1.3064263,-0.84253794,0.7895464,-0.6471055,0.061135154,99.70599,0.11821616,0.3929912,0.388294,0.14201257,0.09903747,inf,inf,inf,inf,1,1,1,1,3,8,3,9,3,1,1,1,0
71897596,71896279,29844784,49.0787067,2.2544098,1.800448,-5.3644657,1.8494725,0.31469056,-0.42780074,0.009625912,-0.043862715,-0.14799574,0.035130568,0.02625937,0.34569857,-0.461591,0.08920306,-2.7704246,2.5248485,-3.2451048,-0.64676,0.061135154,99.70599,0.1175431,0.39374682,0.38892773,0.14245921,0.099204935,inf,inf,inf,inf,1,1,1,1,3,8,3,9,3,1,1,1,0
71907839,71906230,29844784,49.0787067,2.2544098,1.7992471,-5.3654613,1.8505735,0.31469056,-0.42780074,0.009625912,-0.034140114,-0.15873195,0.04509569,0.03692834,0.34569857,-0.461591,0.08920306,1.1603324,1.1745092,-2.6770802,-0.64632446,0.061135154,99.70599,0.116832495,0.39450705,0.38956326,0.14292786,0.09937481,inf,inf,inf,inf,1,1,1,1,3,8,3,9,3,1,1,1,0
71917325,71916187,29844784,49.0787067,2.2544098,1.7981087,-5.366427,1.851585,0.31469056,-0.42780074,0.009625912,-0.030545788,-0.16978434,0.066960335,0.059469953,0.34569857,-0.461591,0.08920306,1.9053236,-5.728241,7.86384,-0.6465289,0.061135154,99.70599,0.116289616,0.39527196,0.3902009,0.14332668,0.09954288,inf,inf,inf,inf,1,1,1,1,3,8,3,9,3,1,1,1,0
71927782,71926143,29844784,49.0787067,2.2544098,1.7969767,-5.367454,1.8526144,0.31469056,-0.42780074,0.009625912,-0.03647137,-0.14642069,0.033324532,0.026484616,0.34569857,-0.461591,0.08920306,1.4703254,1.7798127,-1.5808734,-0.64637995,0.061135154,99.70599,0.115685344,0.39604136,0.39084035,0.14386976,0.09970882,inf,inf,inf,inf,1,1,1,1,3,8,3,9,3,1,1,1,0
71937414,71936099,29844784,49.0787067,2.2544098,1.7959057,-5.3685074,1.8537358,0.31469056,-0.42780074,0.009625912,-0.048524253,-0.15179293,0.043726396,0.037588887,0.34569857,-0.461591,0.08920306,-3.9444938,2.764662,-3.2726984,-0.6461829,0.061135154,99.70599,0.11684811,0.3968157,0.38905573,0.1442839,0.09962163,inf,inf,inf,inf,1,1,1,1,3,8,3,9,3,1,1,1,0
71947364,71946056,29844784,49.0787067,2.2544098,1.7948241,-5.369594,1.8548917,0.31469056,-0.42780074,0.009625912,-0.035191663,-0.15907656,0.05309825,0.047635425,0.34569857,-0.461591,0.08920306,0.4089782,0.32521522,-1.5236218,-0.64605725,0.061135154,99.70599,0.11616981,0.3975946,0.38969526,0.14472634,0.09979095,inf,inf,inf,inf,1,1,1,1,3,8,3,9,3,1,1,1,0
71957346,71956012,29844784,49.0787067,2.2544098,1.793762,-5.370654,1.8559564,0.31469056,-0.42780074,0.009625912,-0.031116476,-0.1634649,0.068116106,0.0632997,0.34569857,-0.461591,0.08920306,3.3579574,-3.8300962,6.873889,-0.6463334,0.061135154,99.70599,0.11559403,0.3983782,0.39033657,0.14517097,0.099958494,inf,inf,inf,inf,1,1,1,1,3,8,3,9,3,1,1,1,0
71967242,71965967,29844784,49.0787067,2.2544098,1.792727,-5.3717318,1.8570322,0.31469056,-0.42780074,0.009625912,-0.04463701,-0.14139196,0.03701565,0.03281997,0.34569857,-0.461591,0.08920306,-0.3645123,2.3244224,-2.203851,-0.64628696,0.061135154,99.70599,0.11494112,0.3991665,0.39098004,0.1457236,0.100126065,inf,inf,inf,inf,1,1,1,1,3,8,3,9,3,1,1,1,0
71977203,71975923,29844784,49.0787067,2.2544098,1.7917628,-5.3728065,1.8581039,0.31469056,-0.42780074,0.009625912,-0.047978044,-0.15052345,0.042614203,0.039013986,0.34569857,-0.461591,0.08920306,-4.5724983,0.9952832,-4.432946,-0.6463567,0.061135154,99.70599,0.114236236,0.3999598,0.3916253,0.14613187,0.10029492,inf,inf,inf,inf,1,1,1,1,3,8,3,9,3,1,1,1,0
71987153,71985879,29844784,49.0787067,2.2544098,1.7907484,-5.373907,1.8591667,0.31469056,-0.42780074,0.009625912,-0.032628946,-0.15458794,0.06061771,0.057588894,0.34569857,-0.461591,0.08920306,2.7211757,-1.1369419,1.3670561,-0.64632255,0.061135154,99.70599,0.11374569,0.40075776,0.39227268,0.14651299,0.100463554,inf,inf,inf,inf,1,1,1,1,3,8,3,9,3,1,1,1,0
71997386,71995835,29844784,49.0787067,2.2544098,1.789774,-5.3749995,1.8601172,0.31469056,-0.42780074,0.009625912,-0.034622557,-0.15454975,0.046495434,0.0440693,0.34569857,-0.461591,0.08920306,3.0663736,-2.7677279,5.05752,-0.64663184,0.061135154,99.70599,0.11472845,0.40156025,0.390469,0.14704762,0.10036938,inf,inf,inf,inf,1,1,1,1,3,8,3,9,3,1,1,1,0
72007163,72005798,29844784,49.0787067,2.2544098,1.7887988,-5.3760986,1.8610972,0.31469056,-0.42780074,0.009625912,-0.052619457,-0.14546417,0.03650698,0.034658566,0.34569857,-0.461591,0.08920306,-1.708078,-0.5403744,-1.3635479,-0.64685124,0.061135154,99.70599,0.11419034,0.4023678,0.3911163,0.14754328,0.10053817,inf,inf,inf,inf,1,1,1,1,3,8,3,9,3,1,1,1,0
72017072,72015748,29844784,49.0787067,2.2544098,1.7878696,-5.3772516,1.8620512,0.31469056,-0.42780074,0.009625912,-0.051698882,-0.14551237,0.028099224,0.026802659,0.34569857,-0.461591,0.08920306,-4.1756268,1.910486,-4.789982,-0.64687526,0.061135154,99.70599,0.113637805,0.4031802,0.3917654,0.14797515,0.1007066,inf,inf,inf,inf,1,1,1,1,3,8,3,9,3,1,1,1,0
72027022,72025704,29844784,49.0787067,2.2544098,1.7869189,-5.3783817,1.8629758,0.31469056,-0.42780074,0.009625912,-0.034013856,-0.15082209,0.05267586,0.051908057,0.34569857,-0.461591,0.08920306,3.0102663,-1.588483,2.5299985,-0.64705503,0.061135154,99.70599,0.11331856,0.40399745,0.39241663,0.14836165,0.10087536,inf,inf,inf,inf,1,1,1,1,3,8,3,9,3,1,1,1,0
72036993,72035660,29844784,49.0787067,2.2544098,1.7860025,-5.3795576,1.8638167,0.31469056,-0.42780074,0.009625912,-0.039808583,-0.14865093,0.04375375,0.043491814,0.34569857,-0.461591,0.08920306,2.5478415,-0.41966918,5.080797,-0.6473728,0.061135154,99.70599,0.113005996,0.4048193,0.39306968,0.14895165,0.101043314,inf,inf,inf,inf,1,1,1,1,3,8,3,9,3,1,1,1,0
72047903,72045616,29844784,49.0787067,2.2544098,1.7847856,-5.3803625,1.8643823,0.31469056,-0.42780074,0.009625912,-0.05719408,-0.15094535,0.037788626,0.03757799,0.34569857,-0.461591,0.08920306,-2.3449311,-0.66115475,-4.179299,-0.64769334,0.061135154,99.70599,0.10242319,0.3897307,0.3873232,0.14000499,0.09849797,inf,inf,inf,inf,1,1,1,1,3,8,3,9,3,1,1,1,0
72056986,72055573,29844784,49.0787067,2.2544098,1.7836586,-5.381201,1.8648665,0.31469056,-0.42780074,0.009625912,-0.045576055,-0.14074717,0.03597379,0.0358118,0.34569857,-0.461591,0.08920306,-2.9880955,2.4590113,-2.2309508,-0.6476516,0.061135154,99.70599,0.10240364,0.390467,0.38795117,0.14043002,0.09866507,inf,inf,inf,inf,1,1,1,1,3,8,3,9,3,1,1,1,0
72066676,72065530,29844784,49.0787067,2.2544098,1.7824838,-5.3820705,1.8654381,0.31469056,-0.42780074,0.009625912,-0.034797486,-0.15364194,0.06304276,0.06292775,0.34569857,-0.461591,0.08920306,4.688422,-0.31523913,2.3806374,-0.6478804,0.061135154,99.70599,0.10244012,0.3912078,0.38858125,0.14083277,0.09883258,inf,inf,inf,inf,1,1,1,1,3,8,3,9,3,1,1,1,0
72077079,72075485,29844784,49.0787067,2.2544098,1.781369,-5.382956,1.8660139,0.31469056,-0.42780074,0.009625912,-0.043947853,-0.14496516,0.0631423,0.06307097,0.34569857,-0.461591,0.08920306,1.8127657,0.6251024,4.865639,-0.6480062,0.061135154,99.70599,0.10234916,0.39195305,0.38921306,0.1413947,0.09900015,inf,inf,inf,inf,1,1,1,1,3,8,3,9,3,1,1,1,0
72086561,72085441,29844784,49.0787067,2.2544098,1.7803006,-5.3838353,1.8666903,0.31469056,-0.42780074,0.009625912,-0.050384853,-0.14730085,0.040372454,0.040343326,0.34569857,-0.461591,0.08920306,-1.9673923,-0.38045466,-6.299952,-0.6482581,0.061135154,99.70599,0.10207236,0.39270315,0.389847,0.14183067,0.09916877,inf,inf,inf,inf,1,1,1,1,3,8,3,9,3,1,1,1,0
72096811,72095399,29844784,49.0787067,2.2544098,1.7793162,-5.384718,1.8673487,0.31469056,-0.42780074,0.009625912,-0.0448793,-0.14279063,0.057261966,0.057381634,0.34569857,-0.461591,0.08920306,-3.2080138,-0.1697426,1.4616157,-0.6482575,0.061135154,99.70599,0.10459006,0.39345777,0.38807517,0.14222737,0.09908424,inf,inf,inf,inf,1,1,1,1,3,8,3,9,3,1,1,1,0
72106616,72105355,29844784,49.0787067,2.2544098,1.7783239,-5.385648,1.8680803,0.31469056,-0.42780074,0.009625912,-0.02499898,-0.143694,0.05288146,0.053143054,0.34569857,-0.461591,0.08920306,4.8347816,0.88924026,-1.0770816,-0.6483457,0.061135154,99.70599,0.10438013,0.39421687,0.38870892,0.14273569,0.09925256,inf,inf,inf,inf,1,1,1,1,3,8,3,9,3,1,1,1,0
72116591,72115312,29844784,49.0787067,2.2544098,1.7773751,-5.3865395,1.8686514,0.31469056,-0.42780074,0.009625912,-0.040990647,-0.13957189,0.054500952,0.05489871,0.34569857,-0.461591,0.08920306,1.263001,-0.5078473,5.225598,-0.64845943,0.061135154,99.70599,0.1042279,0.39498076,0.38934478,0.1432252,0.09942123,inf,inf,inf,inf,1,1,1,1,3,8,3,9,3,1,1,1,0
72126596,72125311,29844784,49.0787067,2.2544098,1.7764485,-5.387469,1.8693738,0.31469056,-0.42780074,0.009625912,-0.052413233,-0.14540115,0.040305227,0.04083309,0.34569857,-0.461591,0.08920306,-3.932293,-1.3631449,-5.2350645,-0.6489556,0.061135154,99.70599,0.103821635,0.3957494,0.38998243,0.14371513,0.09958931,inf,inf,inf,inf,1,1,1,1,3,8,3,9,3,1,1,1,0
72136538,72135327,29844784,49.0787067,2.2544098,1.775548,-5.388387,1.869961,0.31469056,-0.42780074,0.009625912,-0.042328924,-0.13390504,0.046552993,0.047205556,0.34569857,-0.461591,0.08920306,-2.131781,0.040089138,0.48279664,-0.6488424,0.061135154,99.70599,0.103640795,0.3965228,0.39062223,0.14409061,0.09975623,inf,inf,inf,inf,1,1,1,1,3,8,3,9,3,1,1,1,0
72146546,72145318,29844784,49.0787067,2.2544098,1.7746372,-5.389341,1.8705924,0.31469056,-0.42780074,0.009625912,-0.032181352,-0.13258211,0.04916776,0.049938064,0.34569857,-0.461591,0.08920306,3.394644,2.30668,0.08229892,-0.6491144,0.061135154,99.70599,0.103452325,0.39730066,0.3912638,0.14458208,0.09992455,inf,inf,inf,inf,1,1,1,1,3,8,3,9,3,1,1,1,0
72156908,72155330,29844784,49.0787067,2.2544098,1.773741,-5.3902917,1.8713092,0.31469056,-0.42780074,0.009625912,-0.045562256,-0.1394013,0.04931638,0.05034814,0.34569857,-0.461591,0.08920306,0.60372025,-0.6796895,2.5561194,-0.6491838,0.061135154,99.70599,0.10680699,0.39808333,0.38947347,0.1450601,0.09983656,inf,inf,inf,inf,1,1,1,1,3,8,3,9,3,1,1,1,0
72171301,72170069,29844784,49.0787067,2.2544098,1.7726247,-5.3919597,1.8722913,0.31469056,-0.42780074,0.009625912,-0.041090753,-0.13416186,0.0470122,0.04829328,0.34569857,-0.461591,0.08920306,3.715908,2.245379,1.9002233,-0.64941525,0.061135154,99.70599,0.10618281,0.3988708,0.39011496,0.14553078,0.100003324,inf,inf,inf,inf,1,1,1,1,3,8,3,9,3,1,1,1,0
72181349,72180025,29844784,49.0787067,2.2544098,1.7717681,-5.392969,1.8730367,0.31469056,-0.42780074,0.009625912,-0.056360587,-0.14888711,0.04087151,0.042390972,0.34569857,-0.461591,0.08920306,-3.4179792,-2.5043952,-2.2914863,-0.64998925,0.061135154,99.70599,0.10594201,0.39966306,0.39075857,0.14589678,0.10017137,inf,inf,inf,inf,1,1,1,1,3,8,3,9,3,1,1,1,0
72191264,72189982,29844784,49.0787067,2.2544098,1.7708985,-5.393989,1.8737184,0.31469056,-0.42780074,0.009625912,-0.04977552,-0.13738538,0.04364283,0.04538937,0.34569857,-0.461591,0.08920306,-1.5694594,-0.90090764,0.33022162,-0.65006757,0.061135154,99.70599,0.10588145,0.4004598,0.391404,0.14635584,0.10033933,inf,inf,inf,inf,1,1,1,1,3,8,3,9,3,1,1,1,0
72201218,72199939,29844784,49.0787067,2.2544098,1.7700295,-5.395051,1.8744442,0.31469056,-0.42780074,0.009625912,-0.04061945,-0.13352247,0.0537534,0.05571693,0.34569857,-0.461591,0.08920306,2.504649,2.35183,1.3800547,-0.6501707,0.061135154,99.70599,0.1056844,0.40126133,0.39205158,0.1469022,0.100509144,inf,inf,inf,inf,1,1,1,1,3,8,3,9,3,1,1,1,0
72211299,72209894,29844784,49.0787067,2.2544098,1.7691369,-5.3961167,1.8753195,0.31469056,-0.42780074,0.009625912,-0.049589947,-0.13851605,0.052732795,0.05504788,0.34569857,-0.461591,0.08920306,2.2357144,0.64283115,1.4893937,-0.65009105,0.061135154,99.70599,0.10886586,0.40206793,0.39025223,0.14730482,0.10041438,inf,inf,inf,inf,1,1,1,1,3,8,3,9,3,1,1,1,0
72220975,72219850,29844784,49.0787067,2.2544098,1.768307,-5.397169,1.8762003,0.31469056,-0.42780074,0.009625912,-0.06402387,-0.14352196,0.0441133,0.046764188,0.34569857,-0.461591,0.08920306,-4.7476773,-2.6056917,-1.9558002,-0.6505081,0.061135154,99.70599,0.108554125,0.40287915,0.3908997,0.1477919,0.10058228,inf,inf,inf,inf,1,1,1,1,3,8,3,9,3,1,1,1,0
72231370,72229809,29844784,49.0787067,2.2544098,1.7674755,-5.398211,1.8770751,0.31469056,-0.42780074,0.009625912,-0.04883777,-0.1341705,0.057760783,0.060732465,0.34569857,-0.461591,0.08920306,-0.7991896,-1.4726037,1.2707797,-0.650296,0.061135154,99.70599,0.108238816,0.40369532,0.39154896,0.14824657,0.100751095,inf,inf,inf,inf,1,1,1,1,3,8,3,9,3,1,1,1,0
72240943,72239764,29844784,49.0787067,2.2544098,1.7666492,-5.3993025,1.8780274,0.31469056,-0.42780074,0.009625912,-0.041956216,-0.13021347,0.06742069,0.07069853,0.34569857,-0.461591,0.08920306,3.0992732,1.9694043,1.7964313,-0.6501384,0.061135154,99.70599,0.10778296,0.4045163,0.39220035,0.14876498,0.10092141,inf,inf,inf,inf,1,1,1,1,3,8,3,9,3,1,1,1,0
72251824,72249722,29844784,49.0787067,2.2544098,1.7653129,-5.399893,1.8786957,0.31469056,-0.42780074,0.009625912,-0.052080095,-0.13677236,0.054695107,0.057984136,0.34569857,-0.461591,0.08920306,0.7470542,0.44633725,-0.9584076,-0.64971626,0.061135154,99.70599,0.10080969,0.38945302,0.38887614,0.13986813,0.09863007,inf,inf,inf,inf,1,1,1,1,3,8,3,9,3,1,1,1,0
72260939,72259676,29844784,49.0787067,2.2544098,1.764069,-5.4004965,1.879364,0.31469056,-0.42780074,0.009625912,-0.058038965,-0.14245555,0.05886188,0.062159535,0.34569857,-0.461591,0.08920306,-4.335391,-2.483862,-1.1155099,-0.6500402,0.061135154,99.70599,0.100587845,0.39018857,0.3895063,0.14031635,0.098796815,inf,inf,inf,inf,1,1,1,1,3,8,3,9,3,1,1,1,0
72271245,72269636,29844784,49.0787067,2.2544098,1.7628366,-5.401147,1.8800379,0.31469056,-0.42780074,0.009625912,-0.04248937,-0.134959,0.05274597,0.05610054,0.34569857,-0.461591,0.08920306,0.6519243,-0.10126604,-0.7451939,-0.6494914,0.061135154,99.70599,0.10162413,0.39092866,0.38773713,0.14076893,0.09871666,inf,inf,inf,inf,1,1,1,1,3,8,3,9,3,1,1,1,0
72280851,72279587,29844784,49.0787067,2.2544098,1.7616258,-5.401877,1.8806407,0.31469056,-0.42780074,0.009625912,-0.042033955,-0.13338919,0.04622314,0.049627446,0.34569857,-0.461591,0.08920306,2.5412786,3.7187061,-0.68750274,-0.6492374,0.061135154,99.70599,0.101689935,0.3916733,0.38836727,0.141404,0.09888527,inf,inf,inf,inf,1,1,1,1,3,8,3,9,3,1,1,1,0
72291237,72289544,29844784,49.0787067,2.2544098,1.7604346,-5.402622,1.8812139,0.31469056,-0.42780074,0.009625912,-0.04839456,-0.14665711,0.04874534,0.052196167,0.34569857,-0.461591,0.08920306,1.0055292,-0.7060957,0.42118198,-0.6488426,0.061135154,99.70599,0.101545334,0.39242297,0.3889993,0.14187916,0.099054955,inf,inf,inf,inf,1,1,1,1,3,8,3,9,3,1,1,1,0
72300639,72299502,29844784,49.0787067,2.2544098,1.7593235,-5.4034004,1.8818061,0.31469056,-0.42780074,0.009625912,-0.053175095,-0.1503763,0.045493983,0.048988376,0.34569857,-0.461591,0.08920306,-3.2113285,-3.025477,-1.2059516,-0.649159,0.061135154,99.70599,0.10136676,0.39317736,0.3896335,0.14232728,0.09922162,inf,inf,inf,inf,1,1,1,1,3,8,3,9,3,1,1,1,0
72311080,72309456,29844784,49.0787067,2.2544098,1.758223,-5.4042077,1.882503,0.31469056,-0.42780074,0.009625912,-0.03574993,-0.13803479,0.041580662,0.045320783,0.34569857,-0.461591,0.08920306,2.3326669,0.54977834,1.1119382,-0.64862025,0.061135154,99.70599,0.106178045,0.3939363,0.38786566,0.14275059,0.09913694,inf,inf,inf,inf,1,1,1,1,3,8,3,9,3,1,1,1,0
72320533,72319412,29844784,49.0787067,2.2544098,1.7571669,-5.405062,1.8832384,0.31469056,-0.42780074,0.009625912,-0.04269906,-0.13480765,0.04265074,0.04662477,0.34569857,-0.461591,0.08920306,1.4237183,3.6362271,-0.85452855,-0.64855826,0.061135154,99.70599,0.10597432,0.39469984,0.38849983,0.14321052,0.099305935,inf,inf,inf,inf,1,1,1,1,3,8,3,9,3,1,1,1,0
72330630,72329369,29844784,49.0787067,2.2544098,1.7561371,-5.4059014,1.8839437,0.31469056,-0.42780074,0.009625912,-0.041610736,-0.14416264,0.043106038,0.047302544,0.34569857,-0.461591,0.08920306,0.8992051,-0.5496138,0.17086613,-0.64831406,0.061135154,99.70599,0.105752945,0.39546806,0.38913593,0.14369762,0.099475525,inf,inf,inf,inf,1,1,1,1,3,8,3,9,3,1,1,1,0
72340650,72339325,29844784,49.0787067,2.2544098,1.75516,-5.406772,1.884694,0.31469056,-0.42780074,0.009625912,-0.049208652,-0.14491974,0.04734241,0.051749717,0.34569857,-0.461591,0.08920306,-2.4820592,-1.5276524,-0.73899657,-0.6486666,0.061135154,99.70599,0.10549462,0.39624098,0.38977385,0.1441111,0.09964144,inf,inf,inf,inf,1,1,1,1,3,8,3,9,3,1,1,1,0
72350555,72349281,29844784,49.0787067,2.2544098,1.7542002,-5.4076676,1.8853507,0.31469056,-0.42780074,0.009625912,-0.03138418,-0.13855122,0.043302063,0.04790963,0.34569857,-0.461591,0.08920306,2.4933605,0.44069713,1.9090686,-0.6482646,0.061135154,99.70599,0.10546279,0.39701852,0.39041385,0.1445378,0.099808715,inf,inf,inf,inf,1,1,1,1,3,8,3,9,3,1,1,1,0
72360514,72359237,29844784,49.0787067,2.2544098,1.7532595,-5.408616,1.886088,0.31469056,-0.42780074,0.009625912,-0.042646423,-0.13418974,0.04400363,0.048801057,0.34569857,-0.461591,0.08920306,1.131037,3.6718316,-1.8818622,-0.64819336,0.061135154,99.70599,0.10532999,0.39780068,0.3910557,0.1450429,0.099978186,inf,inf,inf,inf,1,1,1,1,3,8,3,9,3,1,1,1,0
72370756,72369194,29844784,49.0787067,2.2544098,1.7523671,-5.409549,1.8867642,0.31469056,-0.42780074,0.009625912,-0.043642078,-0.15172163,0.04581576,0.050796334,0.34569857,-0.461591,0.08920306,-1.5047567,-2.762298,0.92425114,-0.6481855,0.061135154,99.70599,0.10529721,0.39858773,0.38926947,0.14548767,0.099889755,inf,inf,inf,inf,1,1,1,1,3,8,3,9,3,1,1,1,0
72380446,72379172,29844784,49.0787067,2.2544098,1.7514688,-5.4105287,1.8875169,0.31469056,-0.42780074,0.009625912,-0.047324542,-0.14755853,0.057579342,0.062732585,0.34569857,-0.461591,0.08920306,-1.6712382,-2.4075782,1.2338301,-0.6484456,0.061135154,99.70599,0.10508227,0.39937946,0.38991126,0.14597632,0.10005673,inf,inf,inf,inf,1,1,1,1,3,8,3,9,3,1,1,1,0
72390554,72389177,29844784,49.0787067,2.2544098,1.7506075,-5.411556,1.8882421,0.31469056,-0.42780074,0.009625912,-0.032713246,-0.14165258,0.047293935,0.052610707,0.34569857,-0.461591,0.08920306,1.741293,0.78716207,0.16119774,-0.6480221,0.061135154,99.70599,0.1048553,0.40017605,0.39055517,0.14646326,0.1002253,inf,inf,inf,inf,1,1,1,1,3,8,3,9,3,1,1,1,0
72400461,72399180,29844784,49.0787067,2.2544098,1.7497611,-5.412623,1.8889759,0.31469056,-0.42780074,0.009625912,-0.04212703,-0.14016916,0.048313886,0.05378311,0.34569857,-0.461591,0.08920306,0.6492662,2.6762397,-1.2726709,-0.64776456,0.061135154,99.70599,0.10454786,0.40097752,0.39120087,0.14691643,0.10039479,inf,inf,inf,inf,1,1,1,1,3,8,3,9,3,1,1,1,0
72410397,72409192,29844784,49.0787067,2.2544098,1.7489637,-5.413707,1.889717,0.31469056,-0.42780074,0.009625912,-0.043276858,-0.15614109,0.056152858,0.06176623,0.34569857,-0.461591,0.08920306,-1.955741,-2.2666514,0.5795375,-0.64782786,0.061135154,99.70599,0.10428393,0.40178376,0.3918487,0.14739184,0.10056401,inf,inf,inf,inf,1,1,1,1,3,8,3,9,3,1,1,1,0
72420565,72418980,29844784,49.0787067,2.2544098,1.748198,-5.4147673,1.8905735,0.31469056,-0.42780074,0.009625912,-0.037268586,-0.14490987,0.051722243,0.057600632,0.34569857,-0.461591,0.08920306,-0.47455803,-1.0423846,-0.1715947,-0.647777,0.061135154,99.70599,0.10703266,0.4025949,0.39005336,0.14787558,0.10046894,inf,inf,inf,inf,1,1,1,1,3,8,3,9,3,1,1,1,0
72430092,72428935,29844784,49.0787067,2.2544098,1.7474602,-5.4158797,1.8914503,0.31469056,-0.42780074,0.009625912,-0.03131343,-0.13842177,0.064141706,0.07027167,0.34569857,-0.461591,0.08920306,1.3641194,2.5824385,2.1833599,-0.6473077,0.061135154,99.70599,0.10659027,0.40341094,0.39070112,0.14833538,0.100637704,inf,inf,inf,inf,1,1,1,1,3,8,3,9,3,1,1,1,0
72440517,72438890,29844784,49.0787067,2.2544098,1.746749,-5.416964,1.8924112,0.31469056,-0.42780074,0.009625912,-0.036022086,-0.1401887,0.052521978,0.058889505,0.34569857,-0.461591,0.08920306,0.18272913,0.8087584,-3.921828,-0.6470883,0.061135154,99.70599,0.106047034,0.40423182,0.3913507,0.148801,0.1008068,inf,inf,inf,inf,1,1,1,1,3,8,3,9,3,1,1,1,0
72450794,72448846,29844784,49.0787067,2.2544098,1.7456954,-5.4175043,1.8929987,0.31469056,-0.42780074,0.009625912,-0.03868585,-0.14768267,0.06591998,0.07224126,0.34569857,-0.461591,0.08920306,-1.7027354,-2.0235019,3.023447,-0.6472575,0.061135154,99.70599,0.1,0.3891825,0.3880535,0.13990009,0.09852538,inf,inf,inf,inf,1,1,1,1,3,8,3,9,3,1,1,1,0
72460187,72458804,29844784,49.0787067,2.2544098,1.7446325,-5.418018,1.8936148,0.31469056,-0.42780074,0.009625912,-0.033653498,-0.13401194,0.05108366,0.057357695,0.34569857,-0.461591,0.08920306,1.1568286,-1.063923,-1.2398976,-0.6472522,0.061135154,99.70599,0.1,0.3899178,0.38868207,0.14037257,0.09869159,inf,inf,inf,inf,1,1,1,1,3,8,3,9,3,1,1,1,0
72470029,72468761,29844784,49.0787067,2.2544098,1.7436125,-5.418555,1.8942654,0.31469056,-0.42780074,0.009625912,-0.040190216,-0.124110974,0.05377468,0.06011825,0.34569857,-0.461591,0.08920306,-0.76931095,3.06612,1.2073495,-0.64717764,0.061135154,99.70599,0.10186076,0.3906577,0.38692644,0.14082141,0.098612465,inf,inf,inf,inf,1,1,1,1,3,8,3,9,3,1,1,1,0
72479997,72478716,29844784,49.0787067,2.2544098,1.7425631,-5.419044,1.8949617,0.31469056,-0.42780074,0.009625912,-0.04066544,-0.12855044,0.047942568,0.0543505,0.34569857,-0.461591,0.08920306,0.69192135,-0.46061516,-2.2948952,-0.64736724,0.061135154,99.70599,0.1016078,0.39140216,0.38755515,0.1412708,0.098781645,inf,inf,inf,inf,1,1,1,1,3,8,3,9,3,1,1,1,0
72489952,72488672,29844784,49.0787067,2.2544098,1.7415642,-5.419533,1.8956153,0.31469056,-0.42780074,0.009625912,-0.04905065,-0.12983094,0.06491998,0.07138782,0.34569857,-0.461591,0.08920306,-2.8929915,-2.6415808,3.7777026,-0.64793193,0.061135154,99.70599,0.101477265,0.39215118,0.38818568,0.14168388,0.09894872,inf,inf,inf,inf,1,1,1,1,3,8,3,9,3,1,1,1,0
72499936,72498628,29844784,49.0787067,2.2544098,1.7405223,-5.4200106,1.8963429,0.31469056,-0.42780074,0.009625912,-0.03894168,-0.118174285,0.057531845,0.06405488,0.34569857,-0.461591,0.08920306,2.100419,-0.8557679,0.13760573,-0.6481861,0.061135154,99.70599,0.10127187,0.3929047,0.3888183,0.14218281,0.09911587,inf,inf,inf,inf,1,1,1,1,3,8,3,9,3,1,1,1,0
72509864,72508584,29844784,49.0787067,2.2544098,1.7395419,-5.420512,1.8970588,0.31469056,-0.42780074,0.009625912,-0.046952814,-0.104986064,0.054453228,0.06102629,0.34569857,-0.461591,0.08920306,-0.7065246,4.23164,-1.325877,-0.6481503,0.061135154,99.70599,0.101017475,0.39366293,0.3894527,0.14263545,0.099283874,inf,inf,inf,inf,1,1,1,1,3,8,3,9,3,1,1,1,0
72519814,72518539,29844784,49.0787067,2.2544098,1.7385619,-5.420979,1.8977602,0.31469056,-0.42780074,0.009625912,-0.047105808,-0.11925739,0.05538879,0.062007498,0.34569857,-0.461591,0.08920306,-0.6829231,-1.278308,-0.942697,-0.64848876,0.061135154,99.70599,0.10083759,0.39442578,0.39008918,0.14306758,0.099452935,inf,inf,inf,inf,1,1,1,1,3,8,3,9,3,1,1,1,0
72529911,72528496,29844784,49.0787067,2.2544098,1.7376403,-5.4215016,1.8984598,0.31469056,-0.42780074,0.009625912,-0.043612745,-0.11952947,0.06462484,0.07128154,0.34569857,-0.461591,0.08920306,-1.1021924,-1.7147243,1.7125537,-0.6487062,0.061135154,99.70599,0.10057926,0.39519325,0.3883153,0.14353733,0.0993665,inf,inf,inf,inf,1,1,1,1,3,8,3,9,3,1,1,1,0
72539812,72538452,29844784,49.0787067,2.2544098,1.7367429,-5.4220676,1.8991133,0.31469056,-0.42780074,0.009625912,-0.03582284,-0.11691588,0.047299806,0.053990692,0.34569857,-0.461591,0.08920306,1.5518222,-0.13593899,-0.8391575,-0.6486569,0.061135154,99.70599,0.1005013,0.39596543,0.38895175,0.14395268,0.099533476,inf,inf,inf,inf,1,1,1,1,3,8,3,9,3,1,1,1,0
72549713,72548409,29844784,49.0787067,2.2544098,1.7358994,-5.4227257,1.8997577,0.31469056,-0.42780074,0.009625912,-0.03686561,-0.1185636,0.04979918,0.05652144,0.34569857,-0.461591,0.08920306,0.7212546,2.361734,-1.6881462,-0.64833426,0.061135154,99.70599,0.10045612,0.39674217,0.38959002,0.14445399,0.09970213,inf,inf,inf,inf,1,1,1,1,3,8,3,9,3,1,1,1,0
72559642,72558365,29844784,49.0787067,2.2544098,1.7350918,-5.4234467,1.9003714,0.31469056,-0.42780074,0.009625912,-0.03933711,-0.14060096,0.05005284,0.056802932,0.34569857,-0.461591,0.08920306,-0.8053509,-2.929456,-0.19664997,-0.6483696,0.061135154,99.70599,0.10043228,0.39752376,0.39023045,0.14486486,0.099870674,inf,inf,inf,inf,1,1,1,1,3,8,3,9,3,1,1,1,0
72569669,72568321,29844784,49.0787067,2.2544098,1.7343097,-5.4242606,1.9009906,0.31469056,-0.42780074,0.009625912,-0.03677265,-0.14104919,0.06030914,0.06708275,0.34569857,-0.461591,0.08920306,-0.48012862,-2.5730684,2.5358968,-0.64838934,0.061135154,99.70599,0.10037458,0.39830992,0.39087266,0.14538132,0.10003791,inf,inf,inf,inf,1,1,1,1,3,8,3,9,3,1,1,1,0
72579557,72578277,29844784,49.0787067,2.2544098,1.733548,-5.42516,1.9017024,0.31469056,-0.42780074,0.009625912,-0.037018284,-0.13885547,0.040793214,0.04769949,0.34569857,-0.461591,0.08920306,-0.36462665,0.65225655,-1.6715466,-0.6481038,0.061135154,99.70599,0.10294771,0.39910102,0.38909018,0.14583126,0.099948466,inf,inf,inf,inf,1,1,1,1,3,8,3,9,3,1,1,1,0
72589913,72588231,29844784,49.0787067,2.2544098,1.7327847,-5.4261107,1.9024377,0.31469056,-0.42780074,0.009625912,-0.03795415,-0.1355806,0.04944555,0.05647527,0.34569857,-0.461591,0.08920306,0.16384345,3.0476308,-2.3668199,-0.64766383,0.061135154,99.70599,0.10269904,0.39989686,0.38973236,0.14631541,0.10011718,inf,inf,inf,inf,1,1,1,1,3,8,3,9,3,1,1,1,0
72599349,72598190,29844784,49.0787067,2.2544098,1.7320589,-5.4270797,1.9031312,0.31469056,-0.42780074,0.009625912,-0.040457807,-0.15351956,0.053058278,0.06020377,0.34569857,-0.461591,0.08920306,-1.5783374,-2.326878,1.1022816,-0.6477674,0.061135154,99.70599,0.102576256,0.40069753,0.39037663,0.14671358,0.10028565,inf,inf,inf,inf,1,1,1,1,3,8,3,9,3,1,1,1,0
72609533,72608145,29844784,49.0787067,2.2544098,1.7313082,-5.428052,1.9038806,0.31469056,-0.42780074,0.009625912,-0.034355205,-0.14039797,0.06261987,0.069873914,0.34569857,-0.461591,0.08920306,1.7309245,-0.9853036,1.8724291,-0.64774364,0.061135154,99.70599,0.102449656,0.40150282,0.3910227,0.14720736,0.10045274,inf,inf,inf,inf,1,1,1,1,3,8,3,9,3,1,1,1,0
72619197,72618099,29844784,49.0787067,2.2544098,1.7305757,-5.4290805,1.9046088,0.31469056,-0.42780074,0.009625912,-0.045249444,-0.1394203,0.04895888,0.056314364,0.34569857,-0.461591,0.08920306,-1.0100156,2.1696177,-0.71927553,-0.6476121,0.061135154,99.70599,0.102289796,0.40231305,0.3916709,0.14768125,0.1006209,inf,inf,inf,inf,1,1,1,1,3,8,3,9,3,1,1,1,0
72629369,72628055,29844784,49.0787067,2.2544098,1.7298499,-5.430094,1.9054251,0.31469056,-0.42780074,0.009625912,-0.036560755,-0.1360078,0.059435375,0.06688548,0.34569857,-0.461591,0.08920306,0.8249088,1.8497245,-2.7619534,-0.64733696,0.061135154,99.70599,0.102031946,0.40312815,0.39232114,0.14814338,0.100790575,inf,inf,inf,inf,1,1,1,1,3,8,3,9,3,1,1,1,0
72639439,72638034,29844784,49.0787067,2.2544098,1.729176,-5.4311213,1.9061668,0.31469056,-0.42780074,0.009625912,-0.042054497,-0.15042345,0.06288175,0.07044438,0.34569857,-0.461591,0.08920306,-1.5353284,-2.5593116,3.164058,-0.64766926,0.061135154,99.70599,0.10250282,0.4039481,0.39051935,0.14857574,0.10069489,inf,inf,inf,inf,1,1,1,1,3,8,3,9,3,1,1,1,0
72650072,72648032,29844784,49.0787067,2.2544098,1.7277948,-5.432036,1.9067507,0.31469056,-0.42780074,0.009625912,-0.027111227,-0.13433263,0.054353215,0.061829362,0.34569857,-0.461591,0.08920306,1.5416198,-0.7966548,-0.29551926,-0.6476683,0.061135154,99.70599,0.1,0.39098302,0.38853922,0.1424314,0.09922926,inf,inf,inf,inf,1,1,1,1,3,8,3,9,3,1,1,1,0
72659309,72658037,29844784,49.0787067,2.2544098,1.7264915,-5.4330106,1.9073256,0.31469056,-0.42780074,0.009625912,-0.03178871,-0.13355505,0.0592054,0.066596664,0.34569857,-0.461591,0.08920306,0.10805728,2.702029,0.61026347,-0.6473279,0.061135154,99.70599,0.1,0.39174187,0.3891745,0.14288017,0.09939713,inf,inf,inf,inf,1,1,1,1,3,8,3,9,3,1,1,1,0
72669252,72668041,29844784,49.0787067,2.2544098,1.7252778,-5.4339647,1.9079845,0.31469056,-0.42780074,0.009625912,-0.023213992,-0.13883935,0.053267863,0.06057548,0.34569857,-0.461591,0.08920306,0.124388404,-0.45215404,-4.0483484,-0.6471518,0.061135154,99.70599,0.1,0.39250538,0.38981187,0.14333823,0.099566996,inf,inf,inf,inf,1,1,1,1,3,8,3,9,3,1,1,1,0
72679103,72677837,29844784,49.0787067,2.2544098,1.7241063,-5.4349413,1.9085097,0.31469056,-0.42780074,0.009625912,-0.024939144,-0.14563239,0.06885031,0.07607668,0.34569857,-0.461591,0.08920306,0.42412725,-1.9068938,5.2306414,-0.6471813,0.061135154,99.70599,0.1,0.39327356,0.39045104,0.1437609,0.09973442,inf,inf,inf,inf,1,1,1,1,3,8,3,9,3,1,1,1,0
72689409,72687792,29844784,49.0787067,2.2544098,1.7230071,-5.435929,1.9091158,0.31469056,-0.42780074,0.009625912,-0.019745508,-0.13721374,0.049241267,0.056403097,0.34569857,-0.461591,0.08920306,0.117378406,-1.2096925,-1.5626141,-0.6472371,0.061135154,99.70599,0.1,0.3940464,0.3886734,0.14429244,0.099648006,inf,inf,inf,inf,1,1,1,1,3,8,3,9,3,1,1,1,0
72699011,72697748,29844784,49.0787067,2.2544098,1.7219417,-5.4369774,1.9096825,0.31469056,-0.42780074,0.009625912,-0.022122655,-0.13088067,0.05251787,0.059615012,0.34569857,-0.461591,0.08920306,-0.06964178,3.3831198,-1.1325566,-0.6469778,0.061135154,99.70599,0.1,0.3948242,0.38931254,0.14472115,0.09981551,inf,inf,inf,inf,1,1,1,1,3,8,3,9,3,1,1,1,0
72708998,72707705,29844784,49.0787067,2.2544098,1.7209394,-5.4380107,1.9102664,0.31469056,-0.42780074,0.009625912,-0.017999906,-0.1444515,0.051728435,0.05876137,0.34569857,-0.461591,0.08920306,-0.35793942,-1.4681239,-1.715215,-0.6470833,0.061135154,99.70599,0.1,0.39560664,0.3899538,0.14516996,0.09998522,inf,inf,inf,inf,1,1,1,1,3,8,3,9,3,1,1,1,0
72718945,72717661,29844784,49.0787067,2.2544098,1.7199364,-5.4390454,1.9108255,0.31469056,-0.42780074,0.009625912,-0.022291949,-0.14020945,0.06991878,0.07688835,0.34569857,-0.461591,0.08920306,0.10300044,-2.2765646,4.7200418,-0.64746034,0.061135154,99.70599,0.1,0.3963938,0.39059684,0.14559776,0.10015165,inf,inf,inf,inf,1,1,1,1,3,8,3,9,3,1,1,1,0
72728843,72727618,29844784,49.0787067,2.2544098,1.7189775,-5.4400773,1.9114048,0.31469056,-0.42780074,0.009625912,-0.017849376,-0.1276523,0.04498843,0.05189514,0.34569857,-0.461591,0.08920306,0.44346565,1.2004334,-1.7658919,-0.6476213,0.061135154,99.70599,0.1,0.39718568,0.39124203,0.14610842,0.10032097,inf,inf,inf,inf,1,1,1,1,3,8,3,9,3,1,1,1,0
72739391,72737574,29844784,49.0787067,2.2544098,1.7180247,-5.4411125,1.9121737,0.31469056,-0.42780074,0.009625912,-0.027054107,-0.12769367,0.04899837,0.056058284,0.34569857,-0.461591,0.08920306,-0.97187436,1.9654281,-2.296664,-0.6476022,0.061135154,99.70599,0.1028254,0.39798254,0.38945535,0.14653532,0.100228734,inf,inf,inf,inf,1,1,1,1,3,8,3,9,3,1,1,1,0
72748655,72747530,29844784,49.0787067,2.2544098,1.7171186,-5.442158,1.9129195,0.31469056,-0.42780074,0.009625912,-0.022332303,-0.13626501,0.05024802,0.05745212,0.34569857,-0.461591,0.08920306,-1.2732522,-0.91311,-0.77199525,-0.648069,0.061135154,99.70599,0.10270047,0.3987841,0.39010048,0.14698704,0.10039854,inf,inf,inf,inf,1,1,1,1,3,8,3,9,3,1,1,1,0
72758893,72757486,29844784,49.0787067,2.2544098,1.7161784,-5.443201,1.9136171,0.31469056,-0.42780074,0.009625912,-0.021143487,-0.13325009,0.05999498,0.067333184,0.34569857,-0.461591,0.08920306,2.0246234,-1.7079052,3.8986766,-0.6484589,0.061135154,99.70599,0.10256624,0.3995905,0.39074743,0.14748846,0.10056513,inf,inf,inf,inf,1,1,1,1,3,8,3,9,3,1,1,1,0
72768569,72767442,29844784,49.0787067,2.2544098,1.7152774,-5.4442368,1.9143308,0.31469056,-0.42780074,0.009625912,-0.032538403,-0.118264236,0.041302662,0.048766684,0.34569857,-0.461591,0.08920306,-1.814484,2.306959,-1.6811217,-0.64884716,0.061135154,99.70599,0.10243237,0.40040183,0.3913965,0.1479364,0.10073378,inf,inf,inf,inf,1,1,1,1,3,8,3,9,3,1,1,1,0
72778630,72777399,29844784,49.0787067,2.2544098,1.7143348,-5.4452925,1.9150606,0.31469056,-0.42780074,0.009625912,-0.033456985,-0.12659803,0.047136903,0.054718763,0.34569857,-0.461591,0.08920306,-0.58752215,1.4992228,-2.855587,-0.6490134,0.061135154,99.70599,0.10227811,0.40121803,0.39204755,0.1484294,0.10090264,inf,inf,inf,inf,1,1,1,1,3,8,3,9,3,1,1,1,0
72788618,72787354,29844784,49.0787067,2.2544098,1.7134067,-5.446336,1.9157153,0.31469056,-0.42780074,0.009625912,-0.032167938,-0.13339756,0.054188926,0.061881248,0.34569857,-0.461591,0.08920306,0.13126838,-2.5356739,2.7699616,-0.64946777,0.061135154,99.70599,0.1022414,0.40203923,0.39270043,0.14883165,0.10107107,inf,inf,inf,inf,1,1,1,1,3,8,3,9,3,1,1,1,0
72798714,72797311,29844784,49.0787067,2.2544098,1.7124454,-5.4474187,1.9164954,0.31469056,-0.42780074,0.009625912,-0.033498082,-0.13195495,0.06605737,0.073916115,0.34569857,-0.461591,0.08920306,2.110546,-1.8510271,4.2799716,-0.6497538,0.061135154,99.70599,0.10362017,0.40286514,0.39089456,0.14937432,0.100973874,inf,inf,inf,inf,1,1,1,1,3,8,3,9,3,1,1,1,0
72808537,72807267,29844784,49.0787067,2.2544098,1.7115027,-5.4485507,1.9172726,0.31469056,-0.42780074,0.009625912,-0.042964246,-0.12625459,0.040553372,0.048569623,0.34569857,-0.461591,0.08920306,-0.71823883,1.5147284,-2.4438782,-0.6497516,0.061135154,99.70599,0.10339022,0.40369624,0.39154732,0.14982937,0.101141915,inf,inf,inf,inf,1,1,1,1,3,8,3,9,3,1,1,1,0
72818501,72817223,29844784,49.0787067,2.2544098,1.710574,-5.4497476,1.9180726,0.31469056,-0.42780074,0.009625912,-0.040787615,-0.13625155,0.05316084,0.06132504,0.34569857,-0.461591,0.08920306,-0.750604,1.1196423,-2.5066447,-0.6496179,0.061135154,99.70599,0.103128314,0.40453225,0.39220226,0.15030336,0.10131164,inf,inf,inf,inf,1,1,1,1,3,8,3,9,3,1,1,1,0
72828542,72827179,29844784,49.0787067,2.2544098,1.7096417,-5.4509854,1.9188436,0.31469056,-0.42780074,0.009625912,-0.04033823,-0.14905934,0.066836245,0.075138435,0.34569857,-0.461591,0.08920306,0.6184021,-2.7418916,3.835793,-0.6496957,0.061135154,99.70599,0.10296404,0.40537328,0.392859,0.15070248,0.101479486,inf,inf,inf,inf,1,1,1,1,3,8,3,9,3,1,1,1,0
72838486,72837136,29844784,49.0787067,2.2544098,1.7087076,-5.452275,1.9196413,0.31469056,-0.42780074,0.009625912,-0.04263403,-0.14751811,0.062463157,0.07089455,0.34569857,-0.461591,0.08920306,0.84267205,-2.0351841,2.5594637,-0.6497083,0.061135154,99.70599,0.102758884,0.40621907,0.39351794,0.15126888,0.10164806,inf,inf,inf,inf,1,1,1,1,3,8,3,9,3,1,1,1,0
72849275,72847092,29844784,49.0787067,2.2544098,1.707393,-5.4530907,1.9203353,0.31469056,-0.42780074,0.009625912,-0.049092934,-0.13774265,0.046334594,0.054781392,0.34569857,-0.461591,0.08920306,-2.5995314,0.68722534,-2.833668,-0.6492424,0.061135154,99.70599,0.10014105,0.39067283,0.38769698,0.14192824,0.09905576,inf,inf,inf,inf,1,1,1,1,3,8,3,9,3,1,1,1,0
72858366,72857050,29844784,49.0787067,2.2544098,1.7060997,-5.453928,1.9210846,0.31469056,-0.42780074,0.009625912,-0.04463258,-0.1361396,0.060330957,0.06878954,0.34569857,-0.461591,0.08920306,-1.4380751,1.9979495,-2.6644542,-0.64887625,0.061135154,99.70599,0.1,0.39142862,0.38833034,0.14238228,0.09922403,inf,inf,inf,inf,1,1,1,1,3,8,3,9,3,1,1,1,0
72868395,72867004,29844784,49.0787067,2.2544098,1.7048275,-5.4547467,1.9217927,0.31469056,-0.42780074,0.009625912,-0.03723183,-0.14277574,0.07016231,0.078629054,0.34569857,-0.461591,0.08920306,1.8201318,-1.6555884,3.3189263,-0.64885485,0.061135154,99.70599,0.1,0.392189,0.3889655,0.14280483,0.099391095,inf,inf,inf,inf,1,1,1,1,3,8,3,9,3,1,1,1,0
72878044,72876960,29844784,49.0787067,2.2544098,1.7035793,-5.455555,1.9225103,0.31469056,-0.42780074,0.009625912,-0.042154692,-0.13107973,0.06416014,0.07263175,0.34569857,-0.461591,0.08920306,1.3830279,-0.16911663,1.9805391,-0.6486073,0.061135154,99.70599,0.1,0.392954,0.38960275,0.14332773,0.09955915,inf,inf,inf,inf,1,1,1,1,3,8,3,9,3,1,1,1,0
72888554,72886916,29844784,49.0787067,2.2544098,1.7023693,-5.456342,1.9231948,0.31469056,-0.42780074,0.009625912,-0.05085961,-0.12500753,0.04283902,0.0513109,0.34569857,-0.461591,0.08920306,-2.0447872,1.1651574,-4.0599613,-0.6484307,0.061135154,99.70599,0.1,0.39372382,0.3902418,0.14376563,0.09972735,inf,inf,inf,inf,1,1,1,1,3,8,3,9,3,1,1,1,0
72898029,72896888,29844784,49.0787067,2.2544098,1.7011433,-5.4571514,1.9238569,0.31469056,-0.42780074,0.009625912,-0.051551502,-0.1270684,0.056477364,0.06494655,0.34569857,-0.461591,0.08920306,-1.2982692,1.0044678,-1.1963823,-0.6484476,0.061135154,99.70599,0.1,0.39449832,0.390883,0.14420022,0.099895634,inf,inf,inf,inf,1,1,1,1,3,8,3,9,3,1,1,1,0
72908561,72906886,29844784,49.0787067,2.2544098,1.6999243,-5.457918,1.9244555,0.31469056,-0.42780074,0.009625912,-0.044530872,-0.12863049,0.058004048,0.06648544,0.34569857,-0.461591,0.08920306,1.6460594,-2.4971251,3.91243,-0.6488228,0.061135154,99.70599,0.1,0.39527747,0.38909903,0.14461683,0.09980629,inf,inf,inf,inf,1,1,1,1,3,8,3,9,3,1,1,1,0
72918060,72916891,29844784,49.0787067,2.2544098,1.6986892,-5.4587283,1.925092,0.31469056,-0.42780074,0.009625912,-0.06212301,-0.12161647,0.05247351,0.06096367,0.34569857,-0.461591,0.08920306,-1.1774143,0.3789418,0.7595867,-0.64901364,0.061135154,99.70599,0.1,0.39606127,0.38974014,0.14516918,0.099975385,inf,inf,inf,inf,1,1,1,1,3,8,3,9,3,1,1,1,0
72928244,72926905,29844784,49.0787067,2.2544098,1.6975104,-5.459507,1.9257008,0.31469056,-0.42780074,0.009625912,-0.055795453,-0.11633008,0.03764362,0.046139214,0.34569857,-0.461591,0.08920306,-2.269473,0.60754794,-3.419301,-0.64901954,0.061135154,99.70599,0.1,0.39685005,0.3903832,0.14558564,0.10014387,inf,inf,inf,inf,1,1,1,1,3,8,3,9,3,1,1,1,0
72938040,72936698,29844784,49.0787067,2.2544098,1.6963085,-5.4602995,1.9263196,0.31469056,-0.42780074,0.009625912,-0.055879902,-0.11592848,0.053421512,0.061920132,0.34569857,-0.461591,0.08920306,0.8544677,2.1275473,-1.1205024,-0.6491333,0.061135154,99.70599,0.1,0.3976435,0.3910281,0.1459984,0.10031237,inf,inf,inf,inf,1,1,1,1,3,8,3,9,3,1,1,1,0
72948001,72946654,29844784,49.0787067,2.2544098,1.6951236,-5.4610877,1.9268832,0.31469056,-0.42780074,0.009625912,-0.05250375,-0.12725572,0.06022927,0.06872788,0.34569857,-0.461591,0.08920306,1.8090918,-3.1365561,5.135581,-0.64930606,0.061135154,99.70599,0.1,0.39844164,0.39167514,0.14647722,0.100480855,inf,inf,inf,inf,1,1,1,1,3,8,3,9,3,1,1,1,0
72958230,72956610,29844784,49.0787067,2.2544098,1.693903,-5.4619207,1.9275823,0.31469056,-0.42780074,0.009625912,-0.06872651,-0.11936251,0.0467516,0.05532661,0.34569857,-0.461591,0.08920306,-0.40939435,-0.86722386,-0.7282582,-0.6495043,0.061135154,99.70599,0.1011312,0.39924464,0.38988224,0.14699873,0.1003881,inf,inf,inf,inf,1,1,1,1,3,8,3,9,3,1,1,1,0
72967862,72966566,29844784,49.0787067,2.2544098,1.6927453,-5.4628205,1.9282963,0.31469056,-0.42780074,0.009625912,-0.068709515,-0.121620096,0.04566656,0.05431171,0.34569857,-0.461591,0.08920306,-3.7153432,1.292388,-3.4229815,-0.6493714,0.061135154,99.70599,0.10095334,0.40005267,0.3905292,0.14741205,0.10055581,inf,inf,inf,inf,1,1,1,1,3,8,3,9,3,1,1,1,0
72977885,72976524,29844784,49.0787067,2.2544098,1.6915745,-5.4637756,1.9290452,0.31469056,-0.42780074,0.009625912,-0.056011964,-0.12733117,0.059574552,0.068283945,0.34569857,-0.461591,0.08920306,1.5895932,0.78812826,-0.86573136,-0.6492069,0.061135154,99.70599,0.10086298,0.40086535,0.39117792,0.14784238,0.10072386,inf,inf,inf,inf,1,1,1,1,3,8,3,9,3,1,1,1,0
72987877,72986479,29844784,49.0787067,2.2544098,1.6904616,-5.4647965,1.9297187,0.31469056,-0.42780074,0.009625912,-0.057158396,-0.14469029,0.061897896,0.07066577,0.34569857,-0.461591,0.08920306,1.1282794,-3.0877364,4.1477246,-0.6491765,0.061135154,99.70599,0.100865126,0.40168285,0.39182886,0.14832884,0.100892015,inf,inf,inf,inf,1,1,1,1,3,8,3,9,3,1,1,1,0
72997791,72996436,29844784,49.0787067,2.2544098,1.6893841,-5.4658375,1.930426,0.31469056,-0.42780074,0.009625912,-0.058873482,-0.13301836,0.049228508,0.05804799,0.34569857,-0.461591,0.08920306,-0.13780728,-1.1435559,-1.1379409,-0.64884305,0.061135154,99.70599,0.100667834,0.40250528,0.3924816,0.1488731,0.101061024,inf,inf,inf,inf,1,1,1,1,3,8,3,9,3,1,1,1,0
73007962,73006391,29844784,49.0787067,2.2544098,1.6883922,-5.466934,1.9311391,0.31469056,-0.42780074,0.009625912,-0.057106696,-0.13407952,0.05096322,0.059832126,0.34569857,-0.461591,0.08920306,-2.4751327,1.3682897,-2.304598,-0.6484027,0.061135154,99.70599,0.10053384,0.40333286,0.39067963,0.14928941,0.100964144,inf,inf,inf,inf,1,1,1,1,3,8,3,9,3,1,1,1,0
73017755,73016348,29844784,49.0787067,2.2544098,1.6874187,-5.4680643,1.9318737,0.31469056,-0.42780074,0.009625912,-0.03808131,-0.1380922,0.060096942,0.069008306,0.34569857,-0.461591,0.08920306,3.5062296,0.6358166,-0.34967247,-0.64798164,0.061135154,99.70599,0.10034025,0.40416524,0.39133224,0.14975485,0.1011323,inf,inf,inf,inf,1,1,1,1,3,8,3,9,3,1,1,1,0
73027474,73026304,29844784,49.0787067,2.2544098,1.6865225,-5.4692454,1.932534,0.31469056,-0.42780074,0.009625912,-0.043868728,-0.15184024,0.066290565,0.07523947,0.34569857,-0.461591,0.08920306,1.3276006,-2.4940739,5.294765,-0.64760816,0.061135154,99.70599,0.100242615,0.40500256,0.39198703,0.15024185,0.1013017,inf,inf,inf,inf,1,1,1,1,3,8,3,9,3,1,1,1,0
73038074,73036260,29844784,49.0787067,2.2544098,1.6856934,-5.4704294,1.9332637,0.31469056,-0.42780074,0.009625912,-0.0459431,-0.14037785,0.046040136,0.055021353,0.34569857,-0.461591,0.08920306,-1.9821131,-0.9112572,-3.2607083,-0.64736176,0.061135154,99.70599,0.1,0.4058449,0.39264363,0.15077117,0.10147002,inf,inf,inf,inf,1,1,1,1,3,8,3,9,3,1,1,1,0
73048237,73046216,29844784,49.0787067,2.2544098,1.684948,-5.470931,1.9334856,0.31469056,-0.42780074,0.009625912,-0.03802788,-0.13774492,0.04476667,0.053331047,0.34569857,-0.461591,0.08920306,-2.3035655,2.6302803,-2.7547169,-0.6468653,0.061135154,99.70599,0.1,0.39074862,0.38947892,0.14193173,0.099279,inf,inf,inf,inf,1,1,1,1,3,8,3,9,3,1,1,1,0
73057585,73056173,29844784,49.0787067,2.2544098,1.6842047,-5.4714503,1.9337282,0.31469056,-0.42780074,0.009625912,-0.02420421,-0.14436257,0.06068998,0.06885269,0.34569857,-0.461591,0.08920306,3.4249134,0.096023254,1.6624941,-0.64662766,0.061135154,99.70599,0.1,0.39150575,0.39011547,0.14236477,0.09944699,inf,inf,inf,inf,1,1,1,1,3,8,3,9,3,1,1,1,0
73067410,73066129,29844784,49.0787067,2.2544098,1.6835084,-5.472017,1.934243,0.31469056,-0.42780074,0.009625912,-0.03258547,-0.1485372,0.06689812,0.07491174,0.34569857,-0.461591,0.08920306,1.2059175,-1.3801866,4.031462,-0.64649427,0.061135154,99.70599,0.1,0.39226747,0.38834137,0.14286721,0.09936227,inf,inf,inf,inf,1,1,1,1,3,8,3,9,3,1,1,1,0
73077371,73076085,29844784,49.0787067,2.2544098,1.6829008,-5.472562,1.9347905,0.31469056,-0.42780074,0.009625912,-0.030437643,-0.1402939,0.0494149,0.05728303,0.34569857,-0.461591,0.08920306,-1.9803462,-1.4756798,-2.038031,-0.6465289,0.061135154,99.70599,0.1,0.39303395,0.388978,0.14332941,0.099530466,inf,inf,inf,inf,1,1,1,1,3,8,3,9,3,1,1,1,0
73087327,73086041,29844784,49.0787067,2.2544098,1.6823299,-5.4731684,1.9353848,0.31469056,-0.42780074,0.009625912,-0.022554921,-0.13453427,0.06384663,0.0715714,0.34569857,-0.461591,0.08920306,-0.13475794,2.3593366,-1.4385386,-0.6464733,0.061135154,99.70599,0.1,0.39380515,0.38961646,0.14374053,0.09969753,inf,inf,inf,inf,1,1,1,1,3,8,3,9,3,1,1,1,0
73097261,73095997,29844784,49.0787067,2.2544098,1.681791,-5.4737835,1.9359876,0.31469056,-0.42780074,0.009625912,-0.013239449,-0.14263442,0.06696836,0.07455329,0.34569857,-0.461591,0.08920306,2.9137566,-0.48703626,0.80057627,-0.64658403,0.061135154,99.70599,0.1,0.39458093,0.390257,0.14419189,0.09986688,inf,inf,inf,inf,1,1,1,1,3,8,3,9,3,1,1,1,0
73107181,73105955,29844784,49.0787067,2.2544098,1.6812862,-5.4744363,1.9365219,0.31469056,-0.42780074,0.009625912,-0.02328613,-0.14721839,0.064046435,0.071494535,0.34569857,-0.461591,0.08920306,0.10785382,-2.4491334,3.023217,-0.64704466,0.061135154,99.70599,0.1,0.39536142,0.3908994,0.14469756,0.10003434,inf,inf,inf,inf,1,1,1,1,3,8,3,9,3,1,1,1,0
73117310,73115910,29844784,49.0787067,2.2544098,1.6808108,-5.47508,1.9370507,0.31469056,-0.42780074,0.009625912,-0.024997812,-0.13391347,0.05792857,0.06518223,0.34569857,-0.461591,0.08920306,-2.0651326,-0.39430588,-1.3859122,-0.64736104,0.061135154,99.70599,0.1,0.39614677,0.3891166,0.14515254,0.09994495,inf,inf,inf,inf,1,1,1,1,3,8,3,9,3,1,1,1,0
73127092,73125866,29844784,49.0787067,2.2544098,1.6803185,-5.475778,1.9375701,0.31469056,-0.42780074,0.009625912,-0.025015403,-0.13272956,0.052892,0.059956256,0.34569857,-0.461591,0.08920306,-0.8667555,2.4082909,-3.0970786,-0.6476814,0.061135154,99.70599,0.1,0.39693686,0.38975888,0.14558518,0.100112,inf,inf,inf,inf,1,1,1,1,3,8,3,9,3,1,1,1,0
73137161,73135822,29844784,49.0787067,2.2544098,1.6797985,-5.476462,1.9380381,0.31469056,-0.42780074,0.009625912,-0.024679827,-0.1391786,0.06461857,0.071499236,0.34569857,-0.461591,0.08920306,1.0179219,-1.1407317,2.3112264,-0.64799607,0.061135154,99.70599,0.1,0.3977317,0.3904033,0.1460238,0.100281425,inf,inf,inf,inf,1,1,1,1,3,8,3,9,3,1,1,1,0
73147047,73145779,29844784,49.0787067,2.2544098,1.6792953,-5.4771433,1.9385176,0.31469056,-0.42780074,0.009625912,-0.029314397,-0.1345977,0.057213932,0.06391504,0.34569857,-0.461591,0.08920306,-0.52002513,-1.6513306,0.7965353,-0.6486054,0.061135154,99.70599,0.1,0.3985312,0.39104956,0.14656062,0.10044936,inf,inf,inf,inf,1,1,1,1,3,8,3,9,3,1,1,1,0
73157055,73155757,29844784,49.0787067,2.2544098,1.6788139,-5.47787,1.938947,0.31469056,-0.42780074,0.009625912,-0.031522393,-0.13055652,0.043197665,0.049724795,0.34569857,-0.461591,0.08920306,-2.1090324,0.7796885,-2.09685,-0.64897716,0.061135154,99.70599,0.1,0.39933577,0.39169794,0.14703025,0.10061725,inf,inf,inf,inf,1,1,1,1,3,8,3,9,3,1,1,1,0
73167352,73165752,29844784,49.0787067,2.2544098,1.6783283,-5.4786816,1.939283,0.31469056,-0.42780074,0.009625912,-0.022232488,-0.13432966,0.04536686,0.051633175,0.34569857,-0.461591,0.08920306,1.2297909,2.3969164,-2.5977454,-0.6490509,0.061135154,99.70599,0.1,0.40014523,0.38990596,0.14743853,0.10052301,inf,inf,inf,inf,1,1,1,1,3,8,3,9,3,1,1,1,0
73176975,73175759,29844784,49.0787067,2.2544098,1.6778649,-5.479511,1.9395751,0.31469056,-0.42780074,0.009625912,-0.023543289,-0.14570084,0.05672953,0.06274434,0.34569857,-0.461591,0.08920306,1.4424126,-1.7395452,3.1787772,-0.6489214,0.061135154,99.70599,0.1,0.40095934,0.39055425,0.14787784,0.10069207,inf,inf,inf,inf,1,1,1,1,3,8,3,9,3,1,1,1,0
73187053,73185760,29844784,49.0787067,2.2544098,1.6774249,-5.4803514,1.9399655,0.31469056,-0.42780074,0.009625912,-0.027564261,-0.14217466,0.061854623,0.067626044,0.34569857,-0.461591,0.08920306,-0.42809603,-2.3818238,2.0841832,-0.64904773,0.061135154,99.70599,0.1,0.40177828,0.39120436,0.1484086,0.1008602,inf,inf,inf,inf,1,1,1,1,3,8,3,9,3,1,1,1,0
73196666,73195563,29844784,49.0787067,2.2544098,1.6770079,-5.4811945,1.9402971,0.31469056,-0.42780074,0.009625912,-0.02914199,-0.12769182,0.034256518,0.03979334,0.34569857,-0.461591,0.08920306,-1.6662906,2.706337,-3.7136598,-0.64875066,0.061135154,99.70599,0.1,0.4026023,0.39185664,0.1488222,0.101027556,inf,inf,inf,inf,1,1,1,1,3,8,3,9,3,1,1,1,0
73206748,73205517,29844784,49.0787067,2.2544098,1.6765834,-5.482104,1.940726,0.31469056,-0.42780074,0.009625912,-0.025767654,-0.13447407,0.062524214,0.067834914,0.34569857,-0.461591,0.08920306,-0.08598146,2.9885492,-1.266322,-0.6484598,0.061135154,99.70599,0.1,0.40343106,0.39251092,0.1492799,0.101196304,inf,inf,inf,inf,1,1,1,1,3,8,3,9,3,1,1,1,0
73216735,73215472,29844784,49.0787067,2.2544098,1.6761329,-5.4830112,1.941174,0.31469056,-0.42780074,0.009625912,-0.028194265,-0.15023065,0.066061765,0.07115347,0.34569857,-0.461591,0.08920306,1.0369934,-3.4883733,2.1778648,-0.6483936,0.061135154,99.70599,0.1,0.40426475,0.39316702,0.14975575,0.1013656,inf,inf,inf,inf,1,1,1,1,3,8,3,9,3,1,1,1,0
73226800,73225429,29844784,49.0787067,2.2544098,1.6756724,-5.4839606,1.941592,0.31469056,-0.42780074,0.009625912,-0.033555195,-0.13837326,0.06453899,0.069389045,0.34569857,-0.461591,0.08920306,-0.10458665,-0.76145643,2.2388535,-0.64863884,0.061135154,99.70599,0.1,0.4051034,0.39135554,0.15024582,0.10126545,inf,inf,inf,inf,1,1,1,1,3,8,3,9,3,1,1,1,0
73236711,73235385,29844784,49.0787067,2.2544098,1.6751986,-5.4849405,1.9420452,0.31469056,-0.42780074,0.009625912,-0.038029823,-0.13249315,0.05410731,0.058725324,0.34569857,-0.461591,0.08920306,-1.1096342,2.675069,-2.3219855,-0.6487924,0.061135154,99.70599,0.1,0.40594706,0.39201152,0.15073358,0.10143403,inf,inf,inf,inf,1,1,1,1,3,8,3,9,3,1,1,1,0
73247430,73245341,29844784,49.0787067,2.2544098,1.6737356,-5.4855967,1.9422987,0.31469056,-0.42780074,0.009625912,-0.028986307,-0.13843459,0.062939785,0.06709617,0.34569857,-0.461591,0.08920306,0.77469534,0.47300205,-1.628953,-0.6488647,0.061135154,99.70599,0.1,0.39253265,0.38989222,0.14405592,0.09988792,inf,inf,inf,inf,1,1,1,1,3,8,3,9,3,1,1,1,0
73256569,73255304,29844784,49.0787067,2.2544098,1.6722999,-5.4862237,1.9424542,0.31469056,-0.42780074,0.009625912,-0.029717663,-0.13832062,0.062251702,0.06596445,0.34569857,-0.461591,0.08920306,2.0304072,-2.520187,3.5770729,-0.64888203,0.061135154,99.70599,0.1,0.39331064,0.39053467,0.14454149,0.10005584,inf,inf,inf,inf,1,1,1,1,3,8,3,9,3,1,1,1,0
73266536,73265255,29844784,49.0787067,2.2544098,1.6709087,-5.486858,1.9426572,0.31469056,-0.42780074,0.009625912,-0.036825515,-0.12760726,0.059545033,0.06283242,0.34569857,-0.461591,0.08920306,-0.43617833,-0.043185063,1.2379532,-0.6493052,0.061135154,99.70599,0.1,0.39409348,0.39117923,0.14505367,0.10022424,inf,inf,inf,inf,1,1,1,1,3,8,3,9,3,1,1,1,0
73276625,73275218,29844784,49.0787067,2.2544098,1.6695566,-5.4874663,1.9429135,0.31469056,-0.42780074,0.009625912,-0.037075616,-0.11579816,0.049267,0.052181132,0.34569857,-0.461591,0.08920306,-1.2550343,2.5096693,-2.493164,-0.64904094,0.061135154,99.70599,0.1,0.39488125,0.3893931,0.14551085,0.100132935,inf,inf,inf,inf,1,1,1,1,3,8,3,9,3,1,1,1,0
73286570,73285167,29844784,49.0787067,2.2544098,1.6682575,-5.4881,1.9432001,0.31469056,-0.42780074,0.009625912,-0.034004252,-0.12615772,0.05585653,0.05841288,0.34569857,-0.461591,0.08920306,-0.92173845,0.5719629,-2.280018,-0.6489443,0.061135154,99.70599,0.1,0.3956738,0.3900376,0.14593287,0.100301765,inf,inf,inf,inf,1,1,1,1,3,8,3,9,3,1,1,1,0
73296417,73295124,29844784,49.0787067,2.2544098,1.66699,-5.4887247,1.9434648,0.31469056,-0.42780074,0.009625912,-0.024736842,-0.12941778,0.073012866,0.07522698,0.34569857,-0.461591,0.08920306,2.3165545,-2.9856758,4.961877,-0.64883095,0.061135154,99.70599,0.1,0.39647108,0.3906839,0.14637694,0.100469574,inf,inf,inf,inf,1,1,1,1,3,8,3,9,3,1,1,1,0
73306381,73305078,29844784,49.0787067,2.2544098,1.6657702,-5.4893994,1.9437579,0.31469056,-0.42780074,0.009625912,-0.03332033,-0.12060832,0.053836513,0.055722933,0.34569857,-0.461591,0.08920306,0.08073476,0.41549763,0.12548259,-0.6490961,0.061135154,99.70599,0.1,0.3972731,0.39133233,0.14693637,0.10063778,inf,inf,inf,inf,1,1,1,1,3,8,3,9,3,1,1,1,0
73316364,73315034,29844784,49.0787067,2.2544098,1.6645782,-5.4901085,1.9440556,0.31469056,-0.42780074,0.009625912,-0.035838652,-0.12025277,0.04912925,0.050701506,0.34569857,-0.461591,0.08920306,-1.3699011,1.96616,-3.1939716,-0.6489948,0.061135154,99.70599,0.1,0.3980803,0.3919826,0.14729618,0.10080532,inf,inf,inf,inf,1,1,1,1,3,8,3,9,3,1,1,1,0
73326271,73324992,29844784,49.0787067,2.2544098,1.6633956,-5.490859,1.9443613,0.31469056,-0.42780074,0.009625912,-0.03360483,-0.12913825,0.058226533,0.05949811,0.34569857,-0.461591,0.08920306,-0.0056561693,-0.043887336,-0.7861975,-0.64897335,0.061135154,99.70599,0.1,0.39889205,0.392635,0.14774771,0.10097493,inf,inf,inf,inf,1,1,1,1,3,8,3,9,3,1,1,1,0
73336665,73334948,29844784,49.0787067,2.2544098,1.6622214,-5.4916096,1.944722,0.31469056,-0.42780074,0.009625912,-0.03198355,-0.1299909,0.07676995,0.07778683,0.34569857,-0.461591,0.08920306,1.6169162,-2.2020743,5.2756333,-0.64919287,0.061135154,99.70599,0.1,0.39970866,0.39082953,0.14821692,0.10087718,inf,inf,inf,inf,1,1,1,1,3,8,3,9,3,1,1,1,0
73346040,73344904,29844784,49.0787067,2.2544098,1.6610394,-5.492423,1.9451555,0.31469056,-0.42780074,0.009625912,-0.041151773,-0.124786034,0.057608336,0.05838168,0.34569857,-0.461591,0.08920306,0.4812779,1.0285261,-1.3122443,-0.6495531,0.061135154,99.70599,0.1,0.4005302,0.39148185,0.14872092,0.10104584,inf,inf,inf,inf,1,1,1,1,3,8,3,9,3,1,1,1,0
73356273,73354860,29844784,49.0787067,2.2544098,1.659901,-5.493277,1.945525,0.31469056,-0.42780074,0.009625912,-0.04884105,-0.1256386,0.04822837,0.048768923,0.34569857,-0.461591,0.08920306,-3.402422,2.1033103,-3.2824385,-0.6495484,0.061135154,99.70599,0.1,0.40135676,0.39213595,0.14915666,0.10121387,inf,inf,inf,inf,1,1,1,1,3,8,3,9,3,1,1,1,0
73365942,73364816,29844784,49.0787067,2.2544098,1.6587529,-5.4941673,1.9459146,0.31469056,-0.42780074,0.009625912,-0.036224324,-0.14052296,0.061364707,0.061682817,0.34569857,-0.461591,0.08920306,1.2023997,-1.940542,-0.6281637,-0.6496383,0.061135154,99.70599,0.1,0.40218818,0.3927922,0.14962667,0.10138255,inf,inf,inf,inf,1,1,1,1,3,8,3,9,3,1,1,1,0
73376051,73374773,29844784,49.0787067,2.2544098,1.6576436,-5.495098,1.946255,0.31469056,-0.42780074,0.009625912,-0.033363935,-0.13346761,0.06507986,0.0651856,0.34569857,-0.461591,0.08920306,2.827542,-0.54519033,4.1498055,-0.6498554,0.061135154,99.70599,0.1,0.40302458,0.39345047,0.15010265,0.10155085,inf,inf,inf,inf,1,1,1,1,3,8,3,9,3,1,1,1,0
73386119,73384730,29844784,49.0787067,2.2544098,1.656548,-5.496075,1.946667,0.31469056,-0.42780074,0.009625912,-0.040771794,-0.13339697,0.05441895,0.05436338,0.34569857,-0.461591,0.08920306,1.2901868,1.2994428,0.28526488,-0.6500883,0.061135154,99.70599,0.1,0.40386602,0.39163554,0.15061036,0.10144909,inf,inf,inf,inf,1,1,1,1,3,8,3,9,3,1,1,1,0
73395986,73394685,29844784,49.0787067,2.2544098,1.6555203,-5.497059,1.9471186,0.31469056,-0.42780074,0.009625912,-0.047553018,-0.13615176,0.04919904,0.048989728,0.34569857,-0.461591,0.08920306,-3.2938008,0.051848724,-3.87086,-0.6500473,0.061135154,99.70599,0.1,0.40471256,0.39229366,0.15105546,0.10161829,inf,inf,inf,inf,1,1,1,1,3,8,3,9,3,1,1,1,0
73405920,73404643,29844784,49.0787067,2.2544098,1.6545084,-5.498071,1.9475192,0.31469056,-0.42780074,0.009625912,-0.032391198,-0.13969377,0.05667104,0.056314934,0.34569857,-0.461591,0.08920306,0.95917594,-1.0393206,0.2624785,-0.649816,0.061135154,99.70599,0.1,0.405564,0.39295363,0.15146258,0.10178611,inf,inf,inf,inf,1,1,1,1,3,8,3,9,3,1,1,1,0
73415803,73414610,29844784,49.0787067,2.2544098,1.6535294,-5.4991193,1.9479232,0.31469056,-0.42780074,0.009625912,-0.031367183,-0.14184067,0.067449294,0.066953465,0.34569857,-0.461591,0.08920306,2.3925729,-1.4138714,4.414205,-0.6500149,0.061135154,99.70599,0.1,0.40642032,0.39361575,0.15200432,0.101955354,inf,inf,inf,inf,1,1,1,1,3,8,3,9,3,1,1,1,0
73425952,73424614,29844784,49.0787067,2.2544098,1.6525512,-5.5002418,1.9483052,0.31469056,-0.42780074,0.009625912,-0.039800595,-0.14094338,0.038685445,0.038057487,0.34569857,-0.461591,0.08920306,0.7087793,0.7679035,-2.0729415,-0.6499379,0.061135154,99.70599,0.1,0.40728188,0.39427975,0.15249337,0.102124244,inf,inf,inf,inf,1,1,1,1,3,8,3,9,3,1,1,1,0
73436175,73434612,29844784,49.0787067,2.2544098,1.6516422,-5.501386,1.9486823,0.31469056,-0.42780074,0.009625912,-0.04600544,-0.14597677,0.049631614,0.048843354,0.34569857,-0.461591,0.08920306,-3.9192863,-0.41583803,-2.7224538,-0.64958954,0.061135154,99.70599,0.1,0.40814862,0.3924552,0.15293153,0.10201935,inf,inf,inf,inf,1,1,1,1,3,8,3,9,3,1,1,1,0
73446625,73444617,29844784,49.0787067,2.2544098,1.6507558,-5.501747,1.9486839,0.31469056,-0.42780074,0.009625912,-0.027469693,-0.14153321,0.06526868,0.06386854,0.34569857,-0.461591,0.08920306,2.0648556,0.2875167,0.7824946,-0.64923763,0.061135154,99.70599,0.1,0.39293987,0.3894465,0.14414564,0.09991996,inf,inf,inf,inf,1,1,1,1,3,8,3,9,3,1,1,1,0
73455742,73454426,29844784,49.0787067,2.2544098,1.6499215,-5.5021043,1.9486436,0.31469056,-0.42780074,0.009625912,-0.03308384,-0.14548884,0.06358665,0.061602224,0.34569857,-0.461591,0.08920306,1.4157925,-1.090464,4.0651393,-0.6492718,0.061135154,99.70599,0.1,0.39372087,0.3900893,0.14467305,0.10008863,inf,inf,inf,inf,1,1,1,1,3,8,3,9,3,1,1,1,0
73465657,73464377,29844784,49.0787067,2.2544098,1.6490937,-5.5025387,1.9486792,0.31469056,-0.42780074,0.009625912,-0.042272143,-0.14450547,0.054932848,0.052390046,0.34569857,-0.461591,0.08920306,-1.6902306,-0.3205556,-0.95510423,-0.64919984,0.061135154,99.70599,0.1,0.39450684,0.3907339,0.14516619,0.10025715,inf,inf,inf,inf,1,1,1,1,3,8,3,9,3,1,1,1,0
73475552,73474334,29844784,49.0787067,2.2544098,1.6483225,-5.5030155,1.9487498,0.31469056,-0.42780074,0.009625912,-0.03691857,-0.14682576,0.050000004,0.04692452,0.34569857,-0.461591,0.08920306,-2.470439,-0.76944727,-4.0370293,-0.64899784,0.061135154,99.70599,0.1,0.39529768,0.39138064,0.14558229,0.10042534,inf,inf,inf,inf,1,1,1,1,3,8,3,9,3,1,1,1,0
73485645,73484290,29844784,49.0787067,2.2544098,1.6476005,-5.503491,1.948757,0.31469056,-0.42780074,0.009625912,-0.017466955,-0.14013411,0.06491527,0.06133269,0.34569857,-0.461591,0.08920306,2.8332193,-0.57297516,3.4283247,-0.648862,0.061135154,99.70599,0.1,0.3960932,0.3920292,0.14603081,0.10059244,inf,inf,inf,inf,1,1,1,1,3,8,3,9,3,1,1,1,0
73495474,73494247,29844784,49.0787067,2.2544098,1.6468791,-5.504027,1.9489448,0.31469056,-0.42780074,0.009625912,-0.02221935,-0.14035049,0.068212494,0.064243294,0.34569857,-0.461591,0.08920306,4.1839585,1.1237108,3.2344556,-0.6489263,0.061135154,99.70599,0.1,0.39689347,0.39023152,0.14653106,0.10049881,inf,inf,inf,inf,1,1,1,1,3,8,3,9,3,1,1,1,0
73505565,73504203,29844784,49.0787067,2.2544098,1.6462123,-5.504577,1.9491384,0.31469056,-0.42780074,0.009625912,-0.038541127,-0.14590004,0.05236099,0.04802317,0.34569857,-0.461591,0.08920306,-2.783459,-1.3384625,-1.0693547,-0.648805,0.061135154,99.70599,0.1,0.3976987,0.39088,0.14701219,0.100667514,inf,inf,inf,inf,1,1,1,1,3,8,3,9,3,1,1,1,0
73515314,73514160,29844784,49.0787067,2.2544098,1.645553,-5.5051265,1.9494002,0.31469056,-0.42780074,0.009625912,-0.031063473,-0.13635272,0.056233678,0.05154543,0.34569857,-0.461591,0.08920306,-1.7710494,-0.41566575,-3.7378051,-0.6485201,0.061135154,99.70599,0.1,0.39850888,0.39153057,0.14745209,0.10083517,inf,inf,inf,inf,1,1,1,1,3,8,3,9,3,1,1,1,0
73525377,73524116,29844784,49.0787067,2.2544098,1.6449128,-5.505679,1.9495889,0.31469056,-0.42780074,0.009625912,-0.020077873,-0.12730488,0.06018938,0.05516822,0.34569857,-0.461591,0.08920306,2.2995276,2.0644119,1.4378315,-0.6486256,0.061135154,99.70599,0.1,0.39932385,0.39218315,0.14787722,0.1010033,inf,inf,inf,inf,1,1,1,1,3,8,3,9,3,1,1,1,0
73535301,73534072,29844784,49.0787067,2.2544098,1.644256,-5.506243,1.9498031,0.31469056,-0.42780074,0.009625912,-0.025071371,-0.12878698,0.06915422,0.063817225,0.34569857,-0.461591,0.08920306,3.3009422,1.7798303,4.026463,-0.64891857,0.061135154,99.70599,0.1,0.40014356,0.39283755,0.14844991,0.101172686,inf,inf,inf,inf,1,1,1,1,3,8,3,9,3,1,1,1,0
73545424,73544028,29844784,49.0787067,2.2544098,1.6435903,-5.506807,1.9502683,0.31469056,-0.42780074,0.009625912,-0.052418422,-0.13392283,0.047673825,0.042228095,0.34569857,-0.461591,0.08920306,-4.576829,-1.1196842,-3.7528567,-0.6491699,0.061135154,99.70599,0.1,0.40096852,0.3910306,0.14887528,0.10107464,inf,inf,inf,inf,1,1,1,1,3,8,3,9,3,1,1,1,0
73555256,73553984,29844784,49.0787067,2.2544098,1.6429442,-5.50738,1.9507251,0.31469056,-0.42780074,0.009625912,-0.037279405,-0.124831,0.05879509,0.0532488,0.34569857,-0.461591,0.08920306,-2.9181545,0.30862468,-2.0241978,-0.64931643,0.061135154,99.70599,0.1,0.40179828,0.39168486,0.14928848,0.101241276,inf,inf,inf,inf,1,1,1,1,3,8,3,9,3,1,1,1,0
73565229,73563942,29844784,49.0787067,2.2544098,1.6422108,-5.5079737,1.9511672,0.31469056,-0.42780074,0.009625912,-0.028575694,-0.12323215,0.064672336,0.05903245,0.34569857,-0.461591,0.08920306,5.4213853,1.3593903,1.8192567,-0.6496674,0.061135154,99.70599,0.1,0.40263283,0.3923413,0.14975487,0.10141045,inf,inf,inf,inf,1,1,1,1,3,8,3,9,3,1,1,1,0
73575160,73573896,29844784,49.0787067,2.2544098,1.6414772,-5.508588,1.9515362,0.31469056,-0.42780074,0.009625912,-0.051018123,-0.12256626,0.054532137,0.048804924,0.34569857,-0.461591,0.08920306,0.10070466,1.4463314,2.4700031,-0.65005755,0.061135154,99.70599,0.1,0.40347236,0.39299956,0.15025252,0.10157946,inf,inf,inf,inf,1,1,1,1,3,8,3,9,3,1,1,1,0
73585180,73583855,29844784,49.0787067,2.2544098,1.6407129,-5.5091963,1.9519513,0.31469056,-0.42780074,0.009625912,-0.06604094,-0.13080515,0.045550264,0.039742265,0.34569857,-0.461591,0.08920306,-5.0152507,-2.307336,-3.0639682,-0.65038925,0.061135154,99.70599,0.1,0.40431693,0.39365998,0.15074079,0.10174822,inf,inf,inf,inf,1,1,1,1,3,8,3,9,3,1,1,1,0
73595203,73593809,29844784,49.0787067,2.2544098,1.639932,-5.509842,1.9522763,0.31469056,-0.42780074,0.009625912,-0.052729055,-0.12048544,0.051734827,0.045761812,0.34569857,-0.461591,0.08920306,-1.2715515,0.40204304,-1.8239183,-0.6503801,0.061135154,99.70599,0.1,0.4051666,0.39184326,0.15115745,0.10164356,inf,inf,inf,inf,1,1,1,1,3,8,3,9,3,1,1,1,0
73605060,73603765,29844784,49.0787067,2.2544098,1.6391357,-5.5105567,1.9526267,0.31469056,-0.42780074,0.009625912,-0.038179357,-0.12309983,0.06825053,0.062122513,0.34569857,-0.461591,0.08920306,5.767328,2.4734519,3.1797397,-0.6503837,0.061135154,99.70599,0.1,0.4060211,0.39250353,0.15161332,0.101812474,inf,inf,inf,inf,1,1,1,1,3,8,3,9,3,1,1,1,0
73615066,73613721,29844784,49.0787067,2.2544098,1.6383498,-5.511286,1.9530485,0.31469056,-0.42780074,0.009625912,-0.059061993,-0.13393976,0.074217476,0.06794374,0.34569857,-0.461591,0.08920306,0.9546976,-1.5078106,4.055549,-0.6503844,0.061135154,99.70599,0.1,0.4068806,0.39316565,0.15214041,0.1019827,inf,inf,inf,inf,1,1,1,1,3,8,3,9,3,1,1,1,0
73625004,73623678,29844784,49.0787067,2.2544098,1.6376057,-5.512049,1.9535205,0.31469056,-0.42780074,0.009625912,-0.06968563,-0.13408108,0.048060045,0.041649938,0.34569857,-0.461591,0.08920306,-5.675443,-2.2867057,-5.1286592,-0.6501952,0.061135154,99.70599,0.1,0.40774533,0.39382994,0.1525981,0.102150366,inf,inf,inf,inf,1,1,1,1,3,8,3,9,3,1,1,1,0
73635005,73633638,29844784,49.0787067,2.2544098,1.636865,-5.5128326,1.9539522,0.31469056,-0.42780074,0.009625912,-0.05199944,-0.12457116,0.06383675,0.0572982,0.34569857,-0.461591,0.08920306,-1.0618039,0.47295472,-1.0777391,-0.64993906,0.061135154,99.70599,0.1,0.40861505,0.39449608,0.15305713,0.10231766,inf,inf,inf,inf,1,1,1,1,3,8,3,9,3,1,1,1,0
73645507,73643590,29844784,49.0787067,2.2544098,1.635677,-5.5128984,1.9540347,0.31469056,-0.42780074,0.009625912,-0.040831234,-0.123012185,0.059047002,0.052079417,0.34569857,-0.461591,0.08920306,5.4002285,2.5613513,1.5104964,-0.6496393,0.061135154,99.70599,0.1,0.39407262,0.39185825,0.14517637,0.100466095,inf,inf,inf,inf,1,1,1,1,3,8,3,9,3,1,1,1,0
73655182,73653548,29844784,49.0787067,2.2544098,1.6345103,-5.513003,1.9541806,0.31469056,-0.42780074,0.009625912,-0.06503063,-0.13624842,0.06015332,0.052873276,0.34569857,-0.461591,0.08920306,-0.6950724,-1.5553147,3.1771672,-0.6495217,0.061135154,99.70599,0.1,0.39486477,0.39006257,0.1457102,0.10037441,inf,inf,inf,inf,1,1,1,1,3,8,3,9,3,1,1,1,0
73664572,73663502,29844784,49.0787067,2.2544098,1.6333785,-5.513121,1.95438,0.31469056,-0.42780074,0.009625912,-0.07052554,-0.13229352,0.039491173,0.03191557,0.34569857,-0.461591,0.08920306,-5.364638,-2.8701491,-4.7323656,-0.6494704,0.061135154,99.70599,0.1,0.39566195,0.39071015,0.14613381,0.10054081,inf,inf,inf,inf,1,1,1,1,3,8,3,9,3,1,1,1,0
73674677,73673463,29844784,49.0787067,2.2544098,1.6322485,-5.5132947,1.9545101,0.31469056,-0.42780074,0.009625912,-0.051264554,-0.11779793,0.044379715,0.036524765,0.34569857,-0.461591,0.08920306,0.9389007,2.472255,-1.9747294,-0.6490436,0.061135154,99.70599,0.1,0.39646384,0.39135966,0.14657639,0.10070827,inf,inf,inf,inf,1,1,1,1,3,8,3,9,3,1,1,1,0
73684660,73683461,29844784,49.0787067,2.2544098,1.6311557,-5.513511,1.9545618,0.31469056,-0.42780074,0.009625912,-0.04433602,-0.1263057,0.04649596,0.038377874,0.34569857,-0.461591,0.08920306,4.3727884,1.318122,2.988176,-0.64879036,0.061135154,99.70599,0.1,0.39727053,0.39201102,0.14707188,0.10087751,inf,inf,inf,inf,1,1,1,1,3,8,3,9,3,1,1,1,0
73694739,73693466,29844784,49.0787067,2.2544098,1.6301157,-5.513799,1.9546639,0.31469056,-0.42780074,0.009625912,-0.059529502,-0.13961792,0.04565142,0.03728524,0.34569857,-0.461591,0.08920306,-0.88943255,-2.3185036,1.3068376,-0.64850676,0.061135154,99.70599,0.1,0.3980822,0.3926645,0.14756629,0.10104738,inf,inf,inf,inf,1,1,1,1,3,8,3,9,3,1,1,1,0
73704867,73703478,29844784,49.0787067,2.2544098,1.6291571,-5.5141377,1.9547973,0.31469056,-0.42780074,0.009625912,-0.061068237,-0.13513231,0.039685745,0.031060217,0.34569857,-0.461591,0.08920306,-5.379567,-1.8506825,-2.4781082,-0.6481309,0.061135154,99.70599,0.1,0.39889878,0.39085957,0.14800996,0.10094774,inf,inf,inf,inf,1,1,1,1,3,8,3,9,3,1,1,1,0
73714643,73713478,29844784,49.0787067,2.2544098,1.6282809,-5.5145264,1.9550363,0.31469056,-0.42780074,0.009625912,-0.023874732,-0.12553486,0.058639087,0.049769342,0.34569857,-0.461591,0.08920306,3.325565,2.1808577,-1.1234323,-0.64760494,0.061135154,99.70599,0.1,0.39972025,0.39151296,0.14841641,0.10111509,inf,inf,inf,inf,1,1,1,1,3,8,3,9,3,1,1,1,0
73729433,73728219,29844784,49.0787067,2.2544098,1.6273123,-5.5156636,1.9554883,0.31469056,-0.42780074,0.009625912,-0.03019299,-0.13762026,0.053804446,0.044705536,0.34569857,-0.461591,0.08920306,-0.7653307,0.29937333,-0.97915816,-0.6471647,0.061135154,99.70599,0.1,0.40054643,0.39216813,0.14885543,0.10128487,inf,inf,inf,inf,1,1,1,1,3,8,3,9,3,1,1,1,0
73739399,73738174,29844784,49.0787067,2.2544098,1.6265848,-5.5162406,1.9557586,0.31469056,-0.42780074,0.009625912,-0.015417516,-0.14007613,0.064173736,0.054859616,0.34569857,-0.461591,0.08920306,4.5442157,2.4942448,1.5331205,-0.6468463,0.061135154,99.70599,0.1,0.40137747,0.3928255,0.14941822,0.10145471,inf,inf,inf,inf,1,1,1,1,3,8,3,9,3,1,1,1,0
73749364,73748131,29844784,49.0787067,2.2544098,1.6259023,-5.5168486,1.9560639,0.31469056,-0.42780074,0.009625912,-0.022942737,-0.15068465,0.06844439,0.05892873,0.34569857,-0.461591,0.08920306,2.556691,-1.083948,2.7649772,-0.64660877,0.061135154,99.70599,0.1,0.40221378,0.39348474,0.14982931,0.101620875,inf,inf,inf,inf,1,1,1,1,3,8,3,9,3,1,1,1,0
73759277,73758086,29844784,49.0787067,2.2544098,1.62531,-5.5174785,1.9563699,0.31469056,-0.42780074,0.009625912,-0.036050506,-0.15215911,0.048243273,0.0385391,0.34569857,-0.461591,0.08920306,-4.9039416,-2.9058506,-2.4411461,-0.6469277,0.061135154,99.70599,0.1,0.40305483,0.3941461,0.15031704,0.10178896,inf,inf,inf,inf,1,1,1,1,3,8,3,9,3,1,1,1,0
73769442,73768046,29844784,49.0787067,2.2544098,1.6247467,-5.518149,1.9568111,0.31469056,-0.42780074,0.009625912,-0.016216813,-0.14003387,0.067796044,0.05799394,0.34569857,-0.461591,0.08920306,-0.6706605,0.92644876,-0.38320875,-0.64701253,0.061135154,99.70599,0.1,0.40390098,0.39232117,0.15077633,0.10168692,inf,inf,inf,inf,1,1,1,1,3,8,3,9,3,1,1,1,0
73779223,73778000,29844784,49.0787067,2.2544098,1.624217,-5.51886,1.9572953,0.31469056,-0.42780074,0.009625912,-0.0024773641,-0.13685097,0.065920986,0.056029532,0.34569857,-0.461591,0.08920306,4.559692,3.4250562,-0.5727955,-0.6467955,0.061135154,99.70599,0.1,0.4047521,0.39298236,0.15132263,0.10185625,inf,inf,inf,inf,1,1,1,1,3,8,3,9,3,1,1,1,0
73789235,73787957,29844784,49.0787067,2.2544098,1.6237507,-5.5195155,1.9576966,0.31469056,-0.42780074,0.009625912,-0.01220502,-0.14630572,0.070010185,0.060038038,0.34569857,-0.461591,0.08920306,1.0439421,-2.5254257,4.008569,-0.64701307,0.061135154,99.70599,0.1,0.40560848,0.39364538,0.15177746,0.10202253,inf,inf,inf,inf,1,1,1,1,3,8,3,9,3,1,1,1,0
73799013,73797912,29844784,49.0787067,2.2544098,1.6233367,-5.5201793,1.9581535,0.31469056,-0.42780074,0.009625912,-0.021504773,-0.13569325,0.04742744,0.037382573,0.34569857,-0.461591,0.08920306,-4.093093,-1.008793,-4.255368,-0.64740986,0.061135154,99.70599,0.1,0.40646988,0.3943106,0.15224303,0.10219156,inf,inf,inf,inf,1,1,1,1,3,8,3,9,3,1,1,1,0
73809269,73807869,29844784,49.0787067,2.2544098,1.6229229,-5.520812,1.9585196,0.31469056,-0.42780074,0.009625912,-0.010997939,-0.122455865,0.052937362,0.04282833,0.34569857,-0.461591,0.08920306,-1.2628292,1.5883636,-0.8474259,-0.64760935,0.061135154,99.70599,0.1,0.4073363,0.39497766,0.15271632,0.1023619,inf,inf,inf,inf,1,1,1,1,3,8,3,9,3,1,1,1,0
73819193,73817825,29844784,49.0787067,2.2544098,1.6224805,-5.521451,1.9587995,0.31469056,-0.42780074,0.009625912,-0.0056198398,-0.11876588,0.061776742,0.05146438,0.34569857,-0.461591,0.08920306,2.9090846,3.0565848,0.18091446,-0.6477184,0.061135154,99.70599,0.1,0.4082078,0.393143,0.15321277,0.10225372,inf,inf,inf,inf,1,1,1,1,3,8,3,9,3,1,1,1,0
73829010,73827780,29844784,49.0787067,2.2544098,1.6220428,-5.522025,1.9590318,0.31469056,-0.42780074,0.009625912,-0.016633386,-0.1305316,0.06398834,0.053486116,0.34569857,-0.461591,0.08920306,0.47433937,-3.7308264,3.9775958,-0.6482787,0.061135154,99.70599,0.1,0.40908453,0.39381,0.15362206,0.1024196,inf,inf,inf,inf,1,1,1,1,3,8,3,9,3,1,1,1,0
73839322,73837737,29844784,49.0787067,2.2544098,1.6216115,-5.5226207,1.9593608,0.31469056,-0.42780074,0.009625912,-0.024080757,-0.1164763,0.056924634,0.04624301,0.34569857,-0.461591,0.08920306,-2.571681,-0.45918563,-1.4498205,-0.64882034,0.061135154,99.70599,0.1,0.4099661,0.3944789,0.1542968,0.10259115,inf,inf,inf,inf,1,1,1,1,3,8,3,9,3,1,1,1,0
73850002,73847700,29844784,49.0787067,2.2544098,1.620381,-5.5222692,1.9592364,0.31469056,-0.42780074,0.009625912,-0.0150576895,-0.114521235,0.0619002,0.05055525,0.34569857,-0.461591,0.08920306,0.52735275,1.3599924,-1.2120494,-0.64910346,0.061135154,99.70599,0.1,0.39391834,0.39106658,0.1446492,0.1002607,inf,inf,inf,inf,1,1,1,1,3,8,3,9,3,1,1,1,0
73858933,73857650,29844784,49.0787067,2.2544098,1.619201,-5.5219727,1.9591502,0.31469056,-0.42780074,0.009625912,-0.013528918,-0.11600463,0.068075664,0.05610127,0.34569857,-0.461591,0.08920306,1.550721,1.2103256,0.6917779,-0.6491641,0.061135154,99.70599,0.1,0.39470634,0.39171404,0.14509149,0.10042952,inf,inf,inf,inf,1,1,1,1,3,8,3,9,3,1,1,1,0
73869253,73867606,29844784,49.0787067,2.2544098,1.6180551,-5.5216923,1.9592109,0.31469056,-0.42780074,0.009625912,-0.017950282,-0.1235579,0.069241986,0.05681902,0.34569857,-0.461591,0.08920306,0.32600784,-2.80772,2.6224005,-0.6494994,0.061135154,99.70599,0.1,0.39549902,0.3899209,0.1456226,0.10033694,inf,inf,inf,inf,1,1,1,1,3,8,3,9,3,1,1,1,0
73878724,73877563,29844784,49.0787067,2.2544098,1.6169202,-5.5215044,1.9593058,0.31469056,-0.42780074,0.009625912,-0.03180073,-0.11611171,0.051530156,0.038683556,0.34569857,-0.461591,0.08920306,-3.4149725,0.3265409,-3.316046,-0.6499439,0.061135154,99.70599,0.1,0.39629674,0.39056826,0.14601554,0.100502566,inf,inf,inf,inf,1,1,1,1,3,8,3,9,3,1,1,1,0
73888906,73887520,29844784,49.0787067,2.2544098,1.615779,-5.521359,1.9593301,0.31469056,-0.42780074,0.009625912,-0.022113074,-0.11505548,0.052839078,0.039590895,0.34569857,-0.461591,0.08920306,-0.115894265,1.2610769,-1.2139949,-0.65012586,0.061135154,99.70599,0.1,0.39709905,0.39121744,0.14648701,0.10066961,inf,inf,inf,inf,1,1,1,1,3,8,3,9,3,1,1,1,0
73898592,73897475,29844784,49.0787067,2.2544098,1.614595,-5.5212703,1.9594082,0.31469056,-0.42780074,0.009625912,-0.029874181,-0.12038534,0.06354434,0.049917787,0.34569857,-0.461591,0.08920306,1.6523784,0.055926453,0.8248637,-0.65040255,0.061135154,99.70599,0.1,0.39790624,0.39186877,0.1469319,0.10083861,inf,inf,inf,inf,1,1,1,1,3,8,3,9,3,1,1,1,0
73908694,73907431,29844784,49.0787067,2.2544098,1.6134217,-5.5212245,1.9594657,0.31469056,-0.42780074,0.009625912,-0.034264963,-0.12527643,0.063800044,0.049817506,0.34569857,-0.461591,0.08920306,0.26527566,-2.134296,3.399804,-0.65090203,0.061135154,99.70599,0.1,0.39871818,0.39252207,0.1474759,0.10100702,inf,inf,inf,inf,1,1,1,1,3,8,3,9,3,1,1,1,0
73918779,73917386,29844784,49.0787067,2.2544098,1.6122167,-5.521234,1.9596109,0.31469056,-0.42780074,0.009625912,-0.045886226,-0.11771721,0.04234628,0.028087096,0.34569857,-0.461591,0.08920306,-1.2658962,0.08962332,-3.6673203,-0.65126115,0.061135154,99.70599,0.1,0.39953527,0.39071962,0.1479212,0.10090752,inf,inf,inf,inf,1,1,1,1,3,8,3,9,3,1,1,1,0
73928534,73927343,29844784,49.0787067,2.2544098,1.6110232,-5.5213037,1.9596535,0.31469056,-0.42780074,0.009625912,-0.04319357,-0.121334195,0.04414233,0.029624654,0.34569857,-0.461591,0.08920306,-0.80692804,0.56819564,-0.6094211,-0.65136516,0.061135154,99.70599,0.1,0.40035716,0.3913728,0.14835368,0.101074986,inf,inf,inf,inf,1,1,1,1,3,8,3,9,3,1,1,1,0
73938598,73937323,29844784,49.0787067,2.2544098,1.6097691,-5.5214543,1.9598039,0.31469056,-0.42780074,0.009625912,-0.04098149,-0.12845078,0.060992416,0.046230957,0.34569857,-0.461591,0.08920306,3.7142541,-0.5620386,0.9348436,-0.6513648,0.061135154,99.70599,0.1,0.40118384,0.3920278,0.14880769,0.10124421,inf,inf,inf,inf,1,1,1,1,3,8,3,9,3,1,1,1,0
73948524,73947322,29844784,49.0787067,2.2544098,1.6085764,-5.5216455,1.9598476,0.31469056,-0.42780074,0.009625912,-0.051240414,-0.13268867,0.046291213,0.03130296,0.34569857,-0.461591,0.08920306,-0.6269899,-2.6957593,3.007788,-0.6517146,0.061135154,99.70599,0.1,0.40201542,0.39268497,0.14929768,0.10141206,inf,inf,inf,inf,1,1,1,1,3,8,3,9,3,1,1,1,0
73958545,73957326,29844784,49.0787067,2.2544098,1.6073422,-5.52193,1.9599386,0.31469056,-0.42780074,0.009625912,-0.056905862,-0.12473315,0.035366196,0.020165147,0.34569857,-0.461591,0.08920306,-0.67187274,1.4771628,-3.285259,-0.65196836,0.061135154,99.70599,0.1,0.40285197,0.39334396,0.1497468,0.1015795,inf,inf,inf,inf,1,1,1,1,3,8,3,9,3,1,1,1,0
73968665,73967342,29844784,49.0787067,2.2544098,1.6061579,-5.522253,1.9599994,0.31469056,-0.42780074,0.009625912,-0.053361237,-0.132736,0.04394077,0.028542755,0.34569857,-0.461591,0.08920306,-1.12753,-0.14338847,-0.07437678,-0.6517626,0.061135154,99.70599,0.1,0.40369347,0.39400512,0.15018982,0.10174778,inf,inf,inf,inf,1,1,1,1,3,8,3,9,3,1,1,1,0
73978520,73977124,29844784,49.0787067,2.2544098,1.6049669,-5.522624,1.9600885,0.31469056,-0.42780074,0.009625912,-0.044268772,-0.13600506,0.05311789,0.03750739,0.34569857,-0.461591,0.08920306,3.8910103,-0.28012666,1.3716197,-0.6518935,0.061135154,99.70599,0.1,0.40453982,0.39218262,0.15065137,0.1016444,inf,inf,inf,inf,1,1,1,1,3,8,3,9,3,1,1,1,0
73988371,73987080,29844784,49.0787067,2.2544098,1.6038289,-5.5230517,1.9601033,0.31469056,-0.42780074,0.009625912,-0.054725397,-0.14081661,0.0440335,0.028226515,0.34569857,-0.461591,0.08920306,-0.15112282,-2.1742253,3.2963426,-0.6520323,0.061135154,99.70599,0.1,0.40539116,0.3928436,0.15118305,0.101813585,inf,inf,inf,inf,1,1,1,1,3,8,3,9,3,1,1,1,0
73998442,73997036,29844784,49.0787067,2.2544098,1.6027001,-5.5235567,1.9602524,0.31469056,-0.42780074,0.009625912,-0.057973128,-0.1341343,0.042467758,0.026477573,0.34569857,-0.461591,0.08920306,-1.686047,1.1103127,-3.1472375,-0.65222466,0.061135154,99.70599,0.1,0.40624768,0.39350644,0.15164883,0.10198138,inf,inf,inf,inf,1,1,1,1,3,8,3,9,3,1,1,1,0
74008261,74006992,29844784,49.0787067,2.2544098,1.6016284,-5.5240884,1.960391,0.31469056,-0.42780074,0.009625912,-0.051936805,-0.1403717,0.048270285,0.03211176,0.34569857,-0.461591,0.08920306,-1.5094516,-0.3788193,-0.6500784,-0.65184885,0.061135154,99.70599,0.1,0.40710926,0.39417142,0.1520755,0.102150396,inf,inf,inf,inf,1,1,1,1,3,8,3,9,3,1,1,1,0
74018286,74016949,29844784,49.0787067,2.2544098,1.6005688,-5.524651,1.9606432,0.31469056,-0.42780074,0.009625912,-0.03912792,-0.14182988,0.07520771,0.058892693,0.34569857,-0.461591,0.08920306,3.348548,-1.609214,3.989559,-0.65186584,0.061135154,99.70599,0.1,0.4079757,0.39483827,0.1525435,0.10231935,inf,inf,inf,inf,1,1,1,1,3,8,3,9,3,1,1,1,0
74028126,74026905,29844784,49.0787067,2.2544098,1.5995872,-5.52526,1.9609145,0.31469056,-0.42780074,0.009625912,-0.043989036,-0.1355959,0.061820503,0.045335177,0.34569857,-0.461591,0.08920306,0.83653516,0.655072,1.1798669,-0.6518036,0.061135154,99.70599,0.1,0.4088472,0.39300603,0.15309379,0.10221199,inf,inf,inf,inf,1,1,1,1,3,8,3,9,3,1,1,1,0
74038166,74036861,29844784,49.0787067,2.2544098,1.598676,-5.5258784,1.9612525,0.31469056,-0.42780074,0.009625912,-0.045417354,-0.13427289,0.059480205,0.042839102,0.34569857,-0.461591,0.08920306,-2.1715095,0.8550848,-3.1046727,-0.65169203,0.061135154,99.70599,0.1,0.40972406,0.39367285,0.15355907,0.10238088,inf,inf,inf,inf,1,1,1,1,3,8,3,9,3,1,1,1,0
74048895,74046817,29844784,49.0787067,2.2544098,1.5979327,-5.525765,1.9612212,0.31469056,-0.42780074,0.009625912,-0.03268405,-0.13471515,0.07427081,0.05704322,0.34569857,-0.461591,0.08920306,-0.036201008,0.4987232,-0.826086,-0.6511397,0.061135154,99.70599,0.1,0.3935729,0.39016283,0.14374891,0.09998553,inf,inf,inf,inf,1,1,1,1,3,8,3,9,3,1,1,1,0
74058010,74056774,29844784,49.0787067,2.2544098,1.5972395,-5.5256467,1.9611403,0.31469056,-0.42780074,0.009625912,-0.024704987,-0.13475366,0.07218315,0.054401927,0.34569857,-0.461591,0.08920306,2.3564801,-1.9539595,3.2499273,-0.6507052,0.061135154,99.70599,0.1,0.39435416,0.39080742,0.1442591,0.10015444,inf,inf,inf,inf,1,1,1,1,3,8,3,9,3,1,1,1,0
74068000,74066731,29844784,49.0787067,2.2544098,1.5965832,-5.525561,1.961074,0.31469056,-0.42780074,0.009625912,-0.028762057,-0.12089259,0.06485929,0.046554238,0.34569857,-0.461591,0.08920306,1.1232663,1.5520233,1.0479435,-0.6506106,0.061135154,99.70599,0.1,0.3951403,0.39145383,0.14475724,0.10032195,inf,inf,inf,inf,1,1,1,1,3,8,3,9,3,1,1,1,0
74078084,74076686,29844784,49.0787067,2.2544098,1.595961,-5.5254755,1.9608898,0.31469056,-0.42780074,0.009625912,-0.03708722,-0.12335061,0.048201937,0.029274564,0.34569857,-0.461591,0.08920306,-2.5538542,0.2864943,-4.1858535,-0.65040064,0.061135154,99.70599,0.1,0.3959313,0.38966474,0.14518759,0.10022918,inf,inf,inf,inf,1,1,1,1,3,8,3,9,3,1,1,1,0
74087872,74086643,29844784,49.0787067,2.2544098,1.595337,-5.5253778,1.9606646,0.31469056,-0.42780074,0.009625912,-0.030489754,-0.11827364,0.05552973,0.0360127,0.34569857,-0.461591,0.08920306,-0.5719667,-0.8683347,-0.95150995,-0.65036094,0.061135154,99.70599,0.1,0.39672694,0.39031103,0.14560884,0.10039629,inf,inf,inf,inf,1,1,1,1,3,8,3,9,3,1,1,1,0
74097875,74096601,29844784,49.0787067,2.2544098,1.5947049,-5.5253057,1.960372,0.31469056,-0.42780074,0.009625912,-0.026665268,-0.11509896,0.057933897,0.0378612,0.34569857,-0.461591,0.08920306,2.2272694,-0.28832248,4.4651875,-0.6504543,0.061135154,99.70599,0.1,0.39752725,0.39095947,0.14610033,0.100565284,inf,inf,inf,inf,1,1,1,1,3,8,3,9,3,1,1,1,0
74107789,74106555,29844784,49.0787067,2.2544098,1.5940999,-5.525251,1.960104,0.31469056,-0.42780074,0.009625912,-0.03472878,-0.11092623,0.039000474,0.018402552,0.34569857,-0.461591,0.08920306,-0.3544532,0.23605038,-1.1830133,-0.6508739,0.061135154,99.70599,0.1,0.39833245,0.39160976,0.14656593,0.10073268,inf,inf,inf,inf,1,1,1,1,3,8,3,9,3,1,1,1,0
74117860,74116511,29844784,49.0787067,2.2544098,1.5935192,-5.5252666,1.9598258,0.31469056,-0.42780074,0.009625912,-0.036241338,-0.11230197,0.029831199,0.008739687,0.34569857,-0.461591,0.08920306,-2.1101844,1.3435634,-4.4887156,-0.65082014,0.061135154,99.70599,0.1,0.39914244,0.39226216,0.14700726,0.100900665,inf,inf,inf,inf,1,1,1,1,3,8,3,9,3,1,1,1,0
74127734,74126469,29844784,49.0787067,2.2544098,1.5929539,-5.5252986,1.9595319,0.31469056,-0.42780074,0.009625912,-0.024817253,-0.12024572,0.047348406,0.02579126,0.34569857,-0.461591,0.08920306,1.2070583,-2.2728574,1.4344108,-0.6508679,0.061135154,99.70599,0.1,0.39995724,0.3929164,0.14737213,0.10106714,inf,inf,inf,inf,1,1,1,1,3,8,3,9,3,1,1,1,0
74137975,74136423,29844784,49.0787067,2.2544098,1.5923862,-5.525401,1.9592131,0.31469056,-0.42780074,0.009625912,-0.024439884,-0.11576893,0.054181535,0.032132298,0.34569857,-0.461591,0.08920306,3.1764102,-0.48264766,5.0660963,-0.6510968,0.061135154,99.70599,0.1,0.40077654,0.39110777,0.14788322,0.100968294,inf,inf,inf,inf,1,1,1,1,3,8,3,9,3,1,1,1,0
74147756,74146381,29844784,49.0787067,2.2544098,1.5918543,-5.525544,1.9589701,0.31469056,-0.42780074,0.009625912,-0.0316624,-0.11229561,0.036093343,0.013580402,0.34569857,-0.461591,0.08920306,0.02893204,1.090458,-1.9765227,-0.6512825,0.061135154,99.70599,0.1,0.40160087,0.39176187,0.14835498,0.101136215,inf,inf,inf,inf,1,1,1,1,3,8,3,9,3,1,1,1,0
74157484,74156341,29844784,49.0787067,2.2544098,1.5913664,-5.525744,1.9588119,0.31469056,-0.42780074,0.009625912,-0.039220903,-0.116848215,0.047748998,0.024802098,0.34569857,-0.461591,0.08920306,-4.289599,0.8369328,-2.8450189,-0.6511126,0.061135154,99.70599,0.1,0.40243006,0.39241812,0.14876577,0.10130347,inf,inf,inf,inf,1,1,1,1,3,8,3,9,3,1,1,1,0
74167706,74166294,29844784,49.0787067,2.2544098,1.5908967,-5.525955,1.9587419,0.31469056,-0.42780074,0.009625912,-0.017175892,-0.121694945,0.06831103,0.04495669,0.34569857,-0.461591,0.08920306,1.4223344,-2.1364214,1.9297807,-0.65104085,0.061135154,99.70599,0.1,0.40326405,0.39307615,0.14923942,0.10147123,inf,inf,inf,inf,1,1,1,1,3,8,3,9,3,1,1,1,0
74177335,74176250,29844784,49.0787067,2.2544098,1.5904248,-5.526186,1.9586849,0.31469056,-0.42780074,0.009625912,-0.021096949,-0.11086432,0.06705011,0.04331599,0.34569857,-0.461591,0.08920306,3.0695682,-0.033529483,4.0648575,-0.6510092,0.061135154,99.70599,0.1,0.40410292,0.39373636,0.14973047,0.101638906,inf,inf,inf,inf,1,1,1,1,3,8,3,9,3,1,1,1,0
74187583,74186205,29844784,49.0787067,2.2544098,1.5900003,-5.5264482,1.958635,0.31469056,-0.42780074,0.009625912,-0.028602106,-0.106825374,0.055859867,0.03168332,0.34569857,-0.461591,0.08920306,-1.1226705,2.1712544,-2.5097678,-0.65098464,0.061135154,99.70599,0.1,0.40494683,0.39191815,0.1502569,0.10153687,inf,inf,inf,inf,1,1,1,1,3,8,3,9,3,1,1,1,0
74197369,74196183,29844784,49.0787067,2.2544098,1.58962,-5.526703,1.958595,0.31469056,-0.42780074,0.009625912,-0.0255014,-0.10796086,0.049826726,0.02523424,0.34569857,-0.461591,0.08920306,-2.357089,0.42498606,-4.9925275,-0.65078187,0.061135154,99.70599,0.1,0.40579587,0.392578,0.15069686,0.10170416,inf,inf,inf,inf,1,1,1,1,3,8,3,9,3,1,1,1,0
74207486,74206185,29844784,49.0787067,2.2544098,1.5892249,-5.5270014,1.9585477,0.31469056,-0.42780074,0.009625912,-0.017847238,-0.111813314,0.07999971,0.055019777,0.34569857,-0.461591,0.08920306,1.3011296,-0.55138284,4.913374,-0.65057135,0.061135154,99.70599,0.1,0.4066498,0.39324006,0.15115562,0.10187216,inf,inf,inf,inf,1,1,1,1,3,8,3,9,3,1,1,1,0
74217379,74216189,29844784,49.0787067,2.2544098,1.5888053,-5.5273347,1.9585598,0.31469056,-0.42780074,0.009625912,-0.023291443,-0.1132097,0.06399317,0.038650244,0.34569857,-0.461591,0.08920306,1.81692,-1.256666,1.5733374,-0.6507067,0.061135154,99.70599,0.1,0.40750867,0.39390394,0.15169337,0.102041036,inf,inf,inf,inf,1,1,1,1,3,8,3,9,3,1,1,1,0
74227408,74226199,29844784,49.0787067,2.2544098,1.5883865,-5.527768,1.9585366,0.31469056,-0.42780074,0.009625912,-0.037602995,-0.114681154,0.0481159,0.02243646,0.34569857,-0.461591,0.08920306,-2.7629461,0.9424228,-2.6354952,-0.6506265,0.061135154,99.70599,0.1,0.4083728,0.39457002,0.1521966,0.102210045,inf,inf,inf,inf,1,1,1,1,3,8,3,9,3,1,1,1,0
74237284,74235986,29844784,49.0787067,2.2544098,1.5879755,-5.528238,1.9585193,0.31469056,-0.42780074,0.009625912,-0.03665923,-0.12379747,0.049777128,0.023784036,0.34569857,-0.461591,0.08920306,-3.7803144,-0.68680847,-3.9182866,-0.6505989,0.061135154,99.70599,0.1,0.409242,0.39523792,0.1526017,0.1023779,inf,inf,inf,inf,1,1,1,1,3,8,3,9,3,1,1,1,0
74247335,74245942,29844784,49.0787067,2.2544098,1.5875027,-5.5287695,1.9584998,0.31469056,-0.42780074,0.009625912,-0.02522403,-0.12498166,0.055191625,0.028982366,0.34569857,-0.461591,0.08920306,2.6766222,-1.4987986,2.4371307,-0.65051436,0.061135154,99.70599,0.1,0.41011608,0.39339918,0.15304543,0.10226794,inf,inf,inf,inf,1,1,1,1,3,8,3,9,3,1,1,1,0
74257998,74255898,29844784,49.0787067,2.2544098,1.5864177,-5.528596,1.9583862,0.31469056,-0.42780074,0.009625912,-0.037046388,-0.12400569,0.05129987,0.024835171,0.34569857,-0.461591,0.08920306,1.0483425,-0.5651662,3.993613,-0.6507212,0.061135154,99.70599,0.1,0.3941403,0.39000717,0.14364515,0.09994584,inf,inf,inf,inf,1,1,1,1,3,8,3,9,3,1,1,1,0
74267202,74265854,29844784,49.0787067,2.2544098,1.5853226,-5.528509,1.9583586,0.31469056,-0.42780074,0.009625912,-0.050594255,-0.12491056,0.031266686,0.004568772,0.34569857,-0.461591,0.08920306,-2.8275995,0.7541068,-5.315033,-0.65067595,0.061135154,99.70599,0.1,0.39492172,0.39065152,0.14405772,0.10011371,inf,inf,inf,inf,1,1,1,1,3,8,3,9,3,1,1,1,0
74277075,74275810,29844784,49.0787067,2.2544098,1.5842794,-5.528465,1.9583052,0.31469056,-0.42780074,0.009625912,-0.042235393,-0.12569486,0.042796176,0.015883766,0.34569857,-0.461591,0.08920306,-2.6945238,0.123212226,-2.1797922,-0.65045774,0.061135154,99.70599,0.1,0.3957077,0.3912977,0.14444439,0.100279935,inf,inf,inf,inf,1,1,1,1,3,8,3,9,3,1,1,1,0
74287054,74285768,29844784,49.0787067,2.2544098,1.5832144,-5.5284805,1.9582545,0.31469056,-0.42780074,0.009625912,-0.02956979,-0.12635376,0.053571533,0.026465243,0.34569857,-0.461591,0.08920306,4.034128,0.32329208,3.0117366,-0.65028894,0.061135154,99.70599,0.1,0.3964982,0.39194596,0.14490542,0.100447066,inf,inf,inf,inf,1,1,1,1,3,8,3,9,3,1,1,1,0
74297408,74295723,29844784,49.0787067,2.2544098,1.5821855,-5.5285463,1.9582628,0.31469056,-0.42780074,0.009625912,-0.042797387,-0.13260254,0.051240645,0.023995569,0.34569857,-0.461591,0.08920306,0.85992575,-1.3678432,3.0442472,-0.65041906,0.061135154,99.70599,0.1,0.3972934,0.39014927,0.14540273,0.10035252,inf,inf,inf,inf,1,1,1,1,3,8,3,9,3,1,1,1,0
74306912,74305679,29844784,49.0787067,2.2544098,1.5811676,-5.5286703,1.9583234,0.31469056,-0.42780074,0.009625912,-0.050211877,-0.12516302,0.036281347,0.008914972,0.34569857,-0.461591,0.08920306,-2.2821667,0.81544244,-3.3581157,-0.650164,0.061135154,99.70599,0.1,0.39809346,0.39079744,0.14588518,0.100520514,inf,inf,inf,inf,1,1,1,1,3,8,3,9,3,1,1,1,0
74317019,74315642,29844784,49.0787067,2.2544098,1.5801806,-5.528817,1.9584234,0.31469056,-0.42780074,0.009625912,-0.044364717,-0.12553343,0.051150568,0.023677401,0.34569857,-0.461591,0.08920306,-1.5666213,0.60396844,-1.3553139,-0.6499327,0.061135154,99.70599,0.1,0.39889836,0.39144742,0.14623721,0.100687206,inf,inf,inf,inf,1,1,1,1,3,8,3,9,3,1,1,1,0
74326750,74325592,29844784,49.0787067,2.2544098,1.5791737,-5.528981,1.9585092,0.31469056,-0.42780074,0.009625912,-0.03582918,-0.12588458,0.05947995,0.031916205,0.34569857,-0.461591,0.08920306,3.420039,-0.5190971,3.9084697,-0.64980197,0.061135154,99.70599,0.1,0.39970773,0.39209953,0.14675696,0.10085594,inf,inf,inf,inf,1,1,1,1,3,8,3,9,3,1,1,1,0
74336958,74335548,29844784,49.0787067,2.2544098,1.5781624,-5.529153,1.9586358,0.31469056,-0.42780074,0.009625912,-0.047360256,-0.119547665,0.054739986,0.027098972,0.34569857,-0.461591,0.08920306,1.766496,0.058741238,2.12727,-0.6496757,0.061135154,99.70599,0.1,0.40052205,0.39275348,0.14727569,0.101024844,inf,inf,inf,inf,1,1,1,1,3,8,3,9,3,1,1,1,0
74346783,74345504,29844784,49.0787067,2.2544098,1.577186,-5.529325,1.9586715,0.31469056,-0.42780074,0.009625912,-0.05569775,-0.11407026,0.04281265,0.014975538,0.34569857,-0.461591,0.08920306,-2.622188,0.79279965,-3.1927457,-0.64952433,0.061135154,99.70599,0.1,0.40134138,0.39094764,0.1477256,0.10092663,inf,inf,inf,inf,1,1,1,1,3,8,3,9,3,1,1,1,0
74356697,74355461,29844784,49.0787067,2.2544098,1.5762577,-5.529492,1.9587785,0.31469056,-0.42780074,0.009625912,-0.040164452,-0.109130524,0.05932051,0.03130751,0.34569857,-0.461591,0.08920306,0.14354585,1.014045,-1.4972864,-0.64934236,0.061135154,99.70599,0.1,0.40216553,0.3916016,0.14817044,0.10109417,inf,inf,inf,inf,1,1,1,1,3,8,3,9,3,1,1,1,0
74366696,74365417,29844784,49.0787067,2.2544098,1.5753326,-5.5296745,1.9588343,0.31469056,-0.42780074,0.009625912,-0.03405108,-0.11159494,0.06353861,0.03536736,0.34569857,-0.461591,0.08920306,4.275208,-0.071247034,4.3135014,-0.6491957,0.061135154,99.70599,0.1,0.40299445,0.39225742,0.1486457,0.10126261,inf,inf,inf,inf,1,1,1,1,3,8,3,9,3,1,1,1,0
74376649,74375373,29844784,49.0787067,2.2544098,1.5744654,-5.529865,1.9589554,0.31469056,-0.42780074,0.009625912,-0.044225655,-0.10848648,0.055071138,0.026760312,0.34569857,-0.461591,0.08920306,0.1751947,-0.4863387,0.09107771,-0.6492572,0.061135154,99.70599,0.1,0.4038283,0.39291537,0.14918202,0.10143207,inf,inf,inf,inf,1,1,1,1,3,8,3,9,3,1,1,1,0
74386607,74385329,29844784,49.0787067,2.2544098,1.573638,-5.5300927,1.9590652,0.31469056,-0.42780074,0.009625912,-0.044363774,-0.108264916,0.047562778,0.019128587,0.34569857,-0.461591,0.08920306,-1.9235357,0.045981836,-2.1111922,-0.64905316,0.061135154,99.70599,0.1,0.40466723,0.39357516,0.14960518,0.10159939,inf,inf,inf,inf,1,1,1,1,3,8,3,9,3,1,1,1,0
74396548,74395286,29844784,49.0787067,2.2544098,1.5728194,-5.530387,1.9592208,0.31469056,-0.42780074,0.009625912,-0.04118572,-0.10728219,0.05246849,0.023928208,0.34569857,-0.461591,0.08920306,-0.5311522,1.6474643,-2.5097275,-0.6490939,0.061135154,99.70599,0.1,0.40551096,0.39423713,0.15003277,0.10176685,inf,inf,inf,inf,1,1,1,1,3,8,3,9,3,1,1,1,0
74406653,74405242,29844784,49.0787067,2.2544098,1.5719965,-5.5306973,1.959479,0.31469056,-0.42780074,0.009625912,-0.036682416,-0.11860669,0.06087093,0.032415196,0.34569857,-0.461591,0.08920306,2.0717113,-2.36721,4.058518,-0.6491074,0.061135154,99.70599,0.1,0.40635952,0.39241102,0.15050513,0.1016628,inf,inf,inf,inf,1,1,1,1,3,8,3,9,3,1,1,1,0
74416553,74415199,29844784,49.0787067,2.2544098,1.5712004,-5.5310283,1.9597619,0.31469056,-0.42780074,0.009625912,-0.04769987,-0.10943094,0.04789775,0.019534782,0.34569857,-0.461591,0.08920306,-1.3027695,-1.1855613,0.27892426,-0.6494088,0.061135154,99.70599,0.1,0.40721303,0.39307278,0.15102686,0.10183141,inf,inf,inf,inf,1,1,1,1,3,8,3,9,3,1,1,1,0
74426435,74425154,29844784,49.0787067,2.2544098,1.5704448,-5.531406,1.960065,0.31469056,-0.42780074,0.009625912,-0.041382827,-0.10731275,0.04571612,0.017452115,0.34569857,-0.461591,0.08920306,-1.6110824,1.0488539,-2.3302524,-0.6493826,0.061135154,99.70599,0.1,0.40807164,0.39373636,0.15143946,0.10199889,inf,inf,inf,inf,1,1,1,1,3,8,3,9,3,1,1,1,0
74436481,74435113,29844784,49.0787067,2.2544098,1.5697017,-5.5318394,1.9604,0.31469056,-0.42780074,0.009625912,-0.037226018,-0.11404195,0.053269938,0.025112368,0.34569857,-0.461591,0.08920306,0.47053474,0.21956515,-1.077708,-0.6494243,0.061135154,99.70599,0.1,0.4089351,0.39440215,0.15187755,0.10216675,inf,inf,inf,inf,1,1,1,1,3,8,3,9,3,1,1,1,0
74447268,74445067,29844784,49.0787067,2.2544098,1.5688684,-5.531478,1.9604967,0.31469056,-0.42780074,0.009625912,-0.027883977,-0.121570945,0.07061781,0.042300757,0.34569857,-0.461591,0.08920306,1.9016932,-1.5709385,4.329392,-0.64939785,0.061135154,99.70599,0.1,0.3942534,0.39163396,0.14392868,0.10024027,inf,inf,inf,inf,1,1,1,1,3,8,3,9,3,1,1,1,0
74456458,74455041,29844784,49.0787067,2.2544098,1.5680616,-5.531194,1.9605834,0.31469056,-0.42780074,0.009625912,-0.04014346,-0.12449207,0.054661434,0.02614436,0.34569857,-0.461591,0.08920306,-1.1846086,-2.3407674,-0.079205036,-0.64947647,0.061135154,99.70599,0.1,0.39503822,0.3898413,0.14442745,0.100147195,inf,inf,inf,inf,1,1,1,1,3,8,3,9,3,1,1,1,0
74466336,74465040,29844784,49.0787067,2.2544098,1.5673163,-5.530976,1.9606582,0.31469056,-0.42780074,0.009625912,-0.032567423,-0.111852236,0.048505113,0.019805992,0.34569857,-0.461591,0.08920306,-1.8770268,1.5878989,-2.488745,-0.64923406,0.061135154,99.70599,0.1,0.39582783,0.39048737,0.14482784,0.10031314,inf,inf,inf,inf,1,1,1,1,3,8,3,9,3,1,1,1,0
74476129,74475044,29844784,49.0787067,2.2544098,1.5665724,-5.5308366,1.9607543,0.31469056,-0.42780074,0.009625912,-0.028808111,-0.11985443,0.050553225,0.021691892,0.34569857,-0.461591,0.08920306,0.8641002,1.575666,-2.471189,-0.649178,0.061135154,99.70599,0.1,0.39662203,0.39113557,0.14527203,0.100480646,inf,inf,inf,inf,1,1,1,1,3,8,3,9,3,1,1,1,0
74486235,74485048,29844784,49.0787067,2.2544098,1.5658733,-5.5307374,1.960804,0.31469056,-0.42780074,0.009625912,-0.025351634,-0.12756924,0.063311346,0.03430689,0.34569857,-0.461591,0.08920306,1.275638,-1.9530411,4.116893,-0.64914495,0.061135154,99.70599,0.1,0.39742094,0.39178574,0.14576015,0.10064885,inf,inf,inf,inf,1,1,1,1,3,8,3,9,3,1,1,1,0
74496066,74494849,29844784,49.0787067,2.2544098,1.5652167,-5.5306664,1.9608605,0.31469056,-0.42780074,0.009625912,-0.028362542,-0.124603264,0.043953285,0.0148216225,0.34569857,-0.461591,0.08920306,-0.11954191,-1.6677508,-0.5782835,-0.64914733,0.061135154,99.70599,0.1,0.39822468,0.39243776,0.14624755,0.10081664,inf,inf,inf,inf,1,1,1,1,3,8,3,9,3,1,1,1,0
74506070,74504805,29844784,49.0787067,2.2544098,1.5646145,-5.5306587,1.9609207,0.31469056,-0.42780074,0.009625912,-0.024981704,-0.11395731,0.044859216,0.015618048,0.34569857,-0.461591,0.08920306,-1.1129954,1.8722304,-1.579876,-0.6489277,0.061135154,99.70599,0.1,0.3990333,0.3930919,0.14669064,0.10098413,inf,inf,inf,inf,1,1,1,1,3,8,3,9,3,1,1,1,0
74516165,74514761,29844784,49.0787067,2.2544098,1.5640484,-5.5306892,1.9610933,0.31469056,-0.42780074,0.009625912,-0.016032089,-0.1172732,0.050941903,0.02165269,0.34569857,-0.461591,0.08920306,1.2152663,1.6624535,-1.6703268,-0.648917,0.061135154,99.70599,0.1,0.39984664,0.39127958,0.14712194,0.10088483,inf,inf,inf,inf,1,1,1,1,3,8,3,9,3,1,1,1,0
74525980,74524717,29844784,49.0787067,2.2544098,1.5635366,-5.530725,1.9612684,0.31469056,-0.42780074,0.009625912,-0.016632643,-0.12094055,0.060959663,0.031636715,0.34569857,-0.461591,0.08920306,0.37860692,-1.4150573,2.4519315,-0.6490406,0.061135154,99.70599,0.1,0.40066475,0.39193356,0.14762986,0.10105299,inf,inf,inf,inf,1,1,1,1,3,8,3,9,3,1,1,1,0
74535938,74534674,29844784,49.0787067,2.2544098,1.5630362,-5.530767,1.9614509,0.31469056,-0.42780074,0.009625912,-0.021044852,-0.11745032,0.05442865,0.025083248,0.34569857,-0.461591,0.08920306,-0.93238205,-2.0980093,1.5278707,-0.6490413,0.061135154,99.70599,0.1,0.4014878,0.3925894,0.14810194,0.10122044,inf,inf,inf,inf,1,1,1,1,3,8,3,9,3,1,1,1,0
74545894,74544636,29844784,49.0787067,2.2544098,1.5625355,-5.530827,1.9616299,0.31469056,-0.42780074,0.009625912,-0.022088505,-0.101577915,0.043001827,0.013647176,0.34569857,-0.461591,0.08920306,-1.0756038,2.115618,-1.9817234,-0.64913666,0.061135154,99.70599,0.1,0.40231574,0.39324734,0.14853829,0.101388566,inf,inf,inf,inf,1,1,1,1,3,8,3,9,3,1,1,1,0
74555849,74554586,29844784,49.0787067,2.2544098,1.5620214,-5.5309367,1.9618826,0.31469056,-0.42780074,0.009625912,-0.022798415,-0.10260983,0.04928445,0.01993095,0.34569857,-0.461591,0.08920306,-0.21476541,3.8585296,-3.7375011,-0.64905906,0.061135154,99.70599,0.1,0.4031485,0.3939071,0.14893912,0.101556115,inf,inf,inf,inf,1,1,1,1,3,8,3,9,3,1,1,1,0
74566101,74564548,29844784,49.0787067,2.2544098,1.561498,-5.5310287,1.9620098,0.31469056,-0.42780074,0.009625912,-0.024881972,-0.1185449,0.056263167,0.026871214,0.34569857,-0.461591,0.08920306,0.008092177,-3.421198,2.548394,-0.64941335,0.061135154,99.70599,0.1,0.40398595,0.3920854,0.14946148,0.10145383,inf,inf,inf,inf,1,1,1,1,3,8,3,9,3,1,1,1,0
74575772,74574500,29844784,49.0787067,2.2544098,1.5609508,-5.531158,1.9621904,0.31469056,-0.42780074,0.009625912,-0.029948479,-0.112452045,0.06492016,0.03550179,0.34569857,-0.461591,0.08920306,-0.32421878,-3.1122682,4.06273,-0.6496889,0.061135154,99.70599,0.1,0.40482846,0.39274502,0.1499526,0.10162084,inf,inf,inf,inf,1,1,1,1,3,8,3,9,3,1,1,1,0
